time,seconds_elapsed,z,y,x
1741033205344714000,0.1797138671875,-1.1025700569152832,1.0204317569732666,-4.153874397277832
1741033205354817500,0.189817626953125,-0.8033251762390137,1.6660645008087158,-3.1251134872436523
1741033205364920800,0.1999208984375,-0.6964526176452637,2.1006569862365723,-2.525296926498413
1741033205375024400,0.2100244140625,-0.9008665084838867,2.1965034008026123,-2.3824188709259033
1741033205385128000,0.2201279296875,-1.0063652992248535,1.9813780784606934,-2.587486982345581
1741033205395231500,0.2302314453125,-0.7864241600036621,1.4526994228363037,-2.946208953857422
1741033205405334800,0.240334716796875,-0.598790168762207,0.7271311283111572,-3.326327323913574
1741033205415438300,0.250438232421875,-0.678534984588623,0.02269911766052246,-3.6750097274780273
1741033205425542000,0.2605419921875,-0.7387409210205078,-0.5608105659484863,-3.887230634689331
1741033205435645400,0.2706455078125,-0.5524063110351562,-0.9616818428039551,-3.9395041465759277
1741033205445748700,0.280748779296875,-0.18387222290039062,-1.2783043384552002,-3.8376355171203613
1741033205455852300,0.290852294921875,0.2102503776550293,-1.464996337890625,-3.543273448944092
1741033205465956400,0.300956298828125,0.4162783622741699,-1.472374439239502,-3.2120845317840576
1741033205476060200,0.31106005859375,0.5961618423461914,-1.2845911979675293,-2.906670093536377
1741033205486163700,0.321163818359375,0.926945686340332,-0.9694082736968994,-2.708463430404663
1741033205496267000,0.33126708984375,1.0355992317199707,-0.6669869422912598,-2.6632814407348633
1741033205506370600,0.34137060546875,0.9669055938720703,-0.3901081085205078,-2.5946600437164307
1741033205516474000,0.35147412109375,1.0132403373718262,-0.1300797462463379,-2.400864601135254
1741033205526577700,0.36157763671875,1.3183245658874512,0.09409141540527344,-2.0377604961395264
1741033205536859400,0.371859375,1.6122379302978516,0.2729158401489258,-1.7088675498962402
1741033205547164700,0.38216455078125,1.7127208709716797,0.32671499252319336,-1.5115355253219604
1741033205557450800,0.39245068359375,1.7913398742675781,0.31327295303344727,-1.4080897569656372
1741033205567585500,0.40258544921875,1.6077804565429688,0.25315356254577637,-1.2217963933944702
1741033205577689000,0.412689208984375,1.396082878112793,0.28043246269226074,-1.0070464611053467
1741033205587792600,0.422792724609375,1.304814338684082,0.32512378692626953,-0.920562744140625
1741033205597896200,0.432896240234375,1.359182357788086,0.4293384552001953,-0.9960358142852783
1741033205607999500,0.44299951171875,1.687556266784668,0.4716532230377197,-1.159399390220642
1741033205618103000,0.45310302734375,2.403074264526367,0.49341273307800293,-1.4978156089782715
1741033205628206600,0.46320654296875,3.109882354736328,0.5266420841217041,-1.922830581665039
1741033205638310100,0.47331005859375,3.2567996978759766,0.6255607604980469,-2.1962482929229736
1741033205648413400,0.483413330078125,2.8836822509765625,0.9293854236602783,-2.3012404441833496
1741033205658517000,0.49351708984375,2.308368682861328,1.3095781803131104,-2.396599054336548
1741033205668620500,0.50362060546875,1.4513511657714844,1.6668939590454102,-2.3750157356262207
1741033205678724000,0.51372412109375,0.4284238815307617,1.8935320377349854,-2.0173451900482178
1741033205688827400,0.523827392578125,0.12717437744140625,1.9703586101531982,-1.5006983280181885
1741033205698931000,0.533930908203125,1.1003751754760742,1.6736316680908203,-1.0505112409591675
1741033205709035300,0.54403515625,3.001051902770996,1.1025121212005615,-0.7583892345428467
1741033205719138800,0.554138916015625,5.032410621643066,0.5112199783325195,-0.7201153039932251
1741033205729278000,0.56427783203125,6.381584167480469,-0.09828567504882812,-0.9709371328353882
1741033205739583500,0.57458349609375,6.457244873046875,-0.8117451667785645,-1.2147960662841797
1741033205749888800,0.584888671875,5.478911399841309,-1.5206108093261719,-1.540877103805542
1741033205760126700,0.595126708984375,3.8647937774658203,-1.8946435451507568,-2.133084297180176
1741033205770250200,0.605250244140625,1.7576837539672852,-1.9236568212509155,-2.7472081184387207
1741033205780353800,0.615353759765625,-0.1562671661376953,-1.730149745941162,-3.2258200645446777
1741033205790457300,0.625457275390625,-1.1818418502807617,-1.46128511428833,-3.468931198120117
1741033205800561000,0.635560791015625,-1.384791374206543,-1.301504135131836,-3.522326946258545
1741033205810664200,0.645664306640625,-1.016972541809082,-1.3282150030136108,-3.4846625328063965
1741033205820767700,0.655767822265625,-0.43671417236328125,-1.523226261138916,-3.3632559776306152
1741033205830871300,0.665871337890625,0.0895376205444336,-1.754238247871399,-3.215634822845459
1741033205840974800,0.675974853515625,0.5119791030883789,-1.9471940994262695,-3.0293772220611572
1741033205851078100,0.686078125,0.6254463195800781,-1.9706181287765503,-2.8171017169952393
1741033205861181700,0.696181640625,0.49085140228271484,-1.8800619840621948,-2.5261430740356445
1741033205871285200,0.70628515625,0.14638042449951172,-1.6987961530685425,-2.2167088985443115
1741033205881388800,0.716388916015625,-0.21210670471191406,-1.4733502864837646,-2.0291831493377686
1741033205891492000,0.7264921875,-0.9418554306030273,-1.2855740785598755,-1.7152111530303955
1741033205901595600,0.736595703125,-1.7070908546447754,-0.8853824138641357,-1.372721552848816
1741033205911699200,0.74669921875,-2.2331719398498535,-0.4340379238128662,-1.0537135601043701
1741033205921802800,0.756802734375,-2.570591449737549,0.025273561477661133,-0.7420426607131958
1741033205931906000,0.766906005859375,-2.8662590980529785,0.46100330352783203,-0.4432324171066284
1741033205942010000,0.777010009765625,-2.9357705116271973,0.7763879299163818,-0.33727139234542847
1741033205952114000,0.787114013671875,-2.908578872680664,0.8622980117797852,-0.40594661235809326
1741033205962217500,0.797217529296875,-2.9232077598571777,0.7151343822479248,-0.5881175398826599
1741033205972320800,0.80732080078125,-2.807372570037842,0.354398250579834,-0.6910301446914673
1741033205982424300,0.81742431640625,-2.5983920097351074,-0.041455984115600586,-0.8001166582107544
1741033205992528000,0.82752783203125,-2.223536968231201,-0.2838170528411865,-0.8074870109558105
1741033206002631400,0.83763134765625,-2.0533618927001953,-0.32710742950439453,-0.8581286668777466
1741033206012734700,0.847734619140625,-1.85227632522583,-0.14351272583007812,-0.8420956134796143
1741033206022838300,0.85783837890625,-1.7184572219848633,0.16291141510009766,-0.7169140577316284
1741033206032941800,0.86794189453125,-1.640401840209961,0.468660831451416,-0.5481583476066589
1741033206043045400,0.87804541015625,-1.658778190612793,0.7164320945739746,-0.4825299382209778
1741033206053149000,0.88814892578125,-1.503427505493164,0.8604447841644287,-0.4936906695365906
1741033206063252200,0.898252197265625,-1.2423133850097656,0.8845090866088867,-0.6231277585029602
1741033206073355800,0.908355712890625,-0.9340353012084961,0.9021587371826172,-0.841274619102478
1741033206083459300,0.918459228515625,-0.5766372680664062,0.9219820499420166,-1.042988896369934
1741033206093563000,0.92856298828125,-0.30394554138183594,0.9676451683044434,-1.2151806354522705
1741033206103666200,0.938666259765625,-0.024274826049804688,1.016195297241211,-1.331343173980713
1741033206113769700,0.948769775390625,0.2779064178466797,1.0611999034881592,-1.3720118999481201
1741033206123873300,0.958873291015625,0.8195171356201172,1.1205835342407227,-1.371457576751709
1741033206133976800,0.968976806640625,1.5495452880859375,1.1220672130584717,-1.2136967182159424
1741033206144080100,0.979080078125,2.1282224655151367,1.0722594261169434,-0.978888213634491
1741033206154183700,0.98918359375,2.272690773010254,0.9323546886444092,-0.8139942288398743
1741033206164287200,0.999287353515625,2.0029478073120117,0.9674444198608398,-0.6650429964065552
1741033206174390800,1.009390869140625,1.4850101470947266,1.1767864227294922,-0.5593466758728027
1741033206184494000,1.019494140625,0.8542957305908203,1.4000091552734375,-0.6115072965621948
1741033206194597600,1.02959765625,0.43899059295654297,1.4752156734466553,-0.7682054042816162
1741033206204701200,1.039701171875,0.3065004348754883,1.470672369003296,-0.8104752898216248
1741033206214804700,1.0498046875,0.8181390762329102,1.4840686321258545,-0.5941686630249023
1741033206224908000,1.059907958984375,1.559976577758789,1.3536534309387207,-0.19197618961334229
1741033206235011600,1.070011474609375,2.19769287109375,1.2731072902679443,0.20787978172302246
1741033206245115100,1.080115234375,2.7405471801757812,1.298743486404419,0.4442112445831299
1741033206255218700,1.09021875,3.0150537490844727,1.3212642669677734,0.45784974098205566
1741033206265322000,1.100322021484375,2.679976463317871,1.250641107559204,0.6802173852920532
1741033206275425500,1.110425537109375,2.8755340576171875,1.2435638904571533,1.4592350721359253
1741033206285529000,1.120529052734375,3.016545295715332,1.3927996158599854,2.305208921432495
1741033206295632600,1.130632568359375,3.403247833251953,1.7830398082733154,3.076561212539673
1741033206305736700,1.14073681640625,3.037996292114258,2.3105902671813965,3.692333221435547
1741033206315840300,1.15084033203125,2.232868194580078,2.255725145339966,3.786935806274414
1741033206325943800,1.16094384765625,2.4503421783447266,1.8180429935455322,3.0332088470458984
1741033206336047400,1.17104736328125,2.5308799743652344,0.9016680717468262,1.6936700344085693
1741033206346151000,1.18115087890625,2.513113021850586,-0.4508821964263916,0.4743286371231079
1741033206356254200,1.191254150390625,1.9390277862548828,-2.300062656402588,-0.7944585084915161
1741033206366357800,1.201357666015625,1.3794536590576172,-3.7973804473876953,-1.055861234664917
1741033206376461300,1.21146142578125,0.906132698059082,-4.1367645263671875,0.08842813968658447
1741033206386564900,1.22156494140625,0.2583045959472656,-3.248701572418213,1.5591938495635986
1741033206396668200,1.231668212890625,-0.16662979125976562,-1.862166166305542,2.651867389678955
1741033206406771700,1.241771728515625,-1.0540027618408203,-0.8285856246948242,3.057286500930786
1741033206416875300,1.251875244140625,-1.9023876190185547,-0.8467113971710205,2.818006753921509
1741033206426978800,1.261978759765625,-2.1678099632263184,-1.4946794509887695,2.062075138092041
1741033206437082000,1.27208203125,-2.268040180206299,-2.1821577548980713,1.3051705360412598
1741033206447185700,1.282185546875,-2.380661964416504,-2.5995852947235107,0.768103837966919
1741033206457289200,1.292289306640625,-2.5706095695495605,-2.650789976119995,0.2556724548339844
1741033206467392800,1.302392822265625,-2.13651704788208,-2.6990747451782227,-0.5221388339996338
1741033206477496300,1.312496337890625,-1.278167724609375,-2.1831283569335938,-1.0685515403747559
1741033206487599600,1.322599609375,-1.0907258987426758,-1.3035986423492432,-1.1241202354431152
1741033206497703200,1.332703125,-1.9247984886169434,-0.3332347869873047,-0.7009382247924805
1741033206507806700,1.342806640625,-3.315673351287842,0.8323025703430176,0.22857356071472168
1741033206517910300,1.35291015625,-2.860718250274658,1.6173527240753174,0.47206664085388184
1741033206528013600,1.363013671875,-1.709155559539795,1.5283262729644775,0.25024914741516113
1741033206538117000,1.3731171875,-0.9223566055297852,1.0544984340667725,0.2109084129333496
1741033206548220700,1.383220703125,-0.11609935760498047,0.7824115753173828,0.11238694190979004
1741033206558324200,1.39332421875,0.01897716522216797,0.620358943939209,-0.23465204238891602
1741033206568427500,1.403427490234375,-0.32869911193847656,0.22517132759094238,-0.8708242177963257
1741033206578531000,1.413531005859375,-0.18826580047607422,-0.2475740909576416,-1.9450706243515015
1741033206588634600,1.423634521484375,-0.08257102966308594,-1.0136897563934326,-2.913590431213379
1741033206598738200,1.43373828125,-0.0839996337890625,-1.7988641262054443,-3.2548696994781494
1741033206608841500,1.443841552734375,-0.2041778564453125,-1.7619200944900513,-3.1339480876922607
1741033206618945000,1.453945068359375,-0.45200634002685547,-1.158203125,-2.5892093181610107
1741033206629048600,1.464048583984375,0.5371322631835938,-0.7831408977508545,-1.6413801908493042
1741033206639152000,1.474152099609375,1.506814956665039,-0.9658970832824707,-0.6735134124755859
1741033206649255400,1.48425537109375,1.8670177459716797,-1.0708496570587158,-0.14467811584472656
1741033206659359700,1.49435986328125,0.8631019592285156,-1.039522647857666,-0.08880400657653809
1741033206669463300,1.50446337890625,-0.1989889144897461,-0.6070129871368408,-0.1538548469543457
1741033206679566800,1.51456689453125,-0.7741203308105469,-0.09498000144958496,0.26372599601745605
1741033206689670400,1.52467041015625,-1.2403287887573242,-0.1688065528869629,0.748629093170166
1741033206699773700,1.534773681640625,-1.068995475769043,-0.14328479766845703,0.48896217346191406
1741033206709877200,1.544877197265625,-0.41533851623535156,0.24791932106018066,0.2798917293548584
1741033206719980800,1.554980712890625,0.02819061279296875,0.4490201473236084,-0.24512839317321777
1741033206730084400,1.56508447265625,0.15164947509765625,0.15986275672912598,-0.6405315399169922
1741033206740187600,1.575187744140625,0.3916797637939453,-0.418410062789917,-0.978769063949585
1741033206750291200,1.585291259765625,0.645838737487793,-1.1211628913879395,-1.3115487098693848
1741033206760394800,1.595394775390625,0.8149595260620117,-1.4624642133712769,-1.085695505142212
1741033206770498300,1.605498291015625,1.346048355102539,-1.2026820182800293,0.03958606719970703
1741033206780601600,1.6156015625,1.404097557067871,-0.2890512943267822,1.424816608428955
1741033206790705200,1.625705078125,1.446157455444336,0.95383620262146,1.6313090324401855
1741033206800808700,1.63580859375,2.0479907989501953,1.878894567489624,1.2716865539550781
1741033206810912300,1.645912353515625,2.701901435852051,2.576334238052368,0.7676830291748047
1741033206821015600,1.656015625,2.970315933227539,2.7339560985565186,-0.15325164794921875
1741033206831119000,1.666119140625,3.007239818572998,2.1812210083007812,-0.5146884918212891
1741033206841222700,1.67622265625,3.6041345596313477,1.4108366966247559,-0.2141423225402832
1741033206851326200,1.686326171875,4.8905720710754395,0.491851806640625,0.015307426452636719
1741033206861429800,1.6964296875,4.816798210144043,-0.7465972900390625,0.34464025497436523
1741033206871533000,1.706532958984375,4.042941570281982,-1.8780285120010376,0.956305980682373
1741033206881636600,1.71663671875,2.5018906593322754,-2.2069783210754395,2.1452770233154297
1741033206891740200,1.726740234375,0.6678371429443359,-1.7640358209609985,3.0752086639404297
1741033206901843700,1.73684375,-0.3085594177246094,-1.014357566833496,3.2098169326782227
1741033206911947000,1.746947021484375,-0.1687941551208496,-0.42662274837493896,3.163384437561035
1741033206922050600,1.757050537109375,-0.3160390853881836,-0.04550480842590332,2.8473587036132812
1741033206932154000,1.767154052734375,-0.4610276222229004,0.042955994606018066,1.9877324104309082
1741033206942257700,1.777257568359375,-0.6983809471130371,-0.25712883472442627,0.7664599418640137
1741033206952361000,1.78736083984375,-1.2313642501831055,-0.7917912602424622,-0.8630304336547852
1741033206962464500,1.797464599609375,-1.8979401588439941,-1.676277995109558,-2.4243369102478027
1741033206972568000,1.807568115234375,-1.9991860389709473,-2.5164740085601807,-3.657424211502075
1741033206982671600,1.817671630859375,-1.6854467391967773,-2.982252597808838,-4.439113616943359
1741033206992775000,1.82777490234375,-0.9846868515014648,-3.1589999198913574,-4.435564041137695
1741033207002878500,1.83787841796875,6.8487043380737305,-3.2208621501922607,-5.111934185028076
1741033207012982000,1.84798193359375,3.031308650970459,-1.4481379985809326,-3.8655519485473633
1741033207023086300,1.85808642578125,2.686832904815674,-0.9340956211090088,-2.7985830307006836
1741033207033190000,1.86818994140625,2.558185577392578,-0.6424280405044556,-2.3534388542175293
1741033207043293200,1.878293212890625,1.6356186866760254,-0.22575128078460693,-1.414961814880371
1741033207053396700,1.888396728515625,0.6162981986999512,0.29700005054473877,-0.31993770599365234
1741033207063500300,1.898500244140625,0.24695777893066406,0.9400327205657959,0.6878781318664551
1741033207073603800,1.908603759765625,0.49618959426879883,1.4039497375488281,1.2161865234375
1741033207083707100,1.91870703125,1.2445378303527832,1.3539786338806152,1.3797554969787598
1741033207093810700,1.928810791015625,1.4168806076049805,0.8241523504257202,1.1513681411743164
1741033207103914200,1.938914306640625,1.2554211616516113,-0.14186978340148926,0.3822760581970215
1741033207114017800,1.949017822265625,1.1334171295166016,-1.1913931369781494,-0.4284543991088867
1741033207124121000,1.95912109375,1.1990137100219727,-1.9984111785888672,-0.8898506164550781
1741033207134224600,1.969224609375,1.3333368301391602,-2.264538049697876,-1.041715145111084
1741033207144328200,1.979328125,1.583695411682129,-2.0017616748809814,-0.9390783309936523
1741033207154431700,1.989431640625,2.2323575019836426,-1.4769929647445679,-0.7037343978881836
1741033207164535000,1.99953515625,2.501595973968506,-1.0934295654296875,-0.2852802276611328
1741033207174638600,2.009638671875,2.6913042068481445,-0.8663849830627441,0.06022930145263672
1741033207184742100,2.0197421875,2.064779281616211,-0.5467095375061035,0.521125316619873
1741033207194845700,2.029845703125,1.8508572578430176,-0.29087209701538086,0.9857983589172363
1741033207204949000,2.039948974609375,1.6357192993164062,-0.020620346069335938,0.9845304489135742
1741033207215052500,2.050052490234375,1.236767292022705,0.32425546646118164,0.5328025817871094
1741033207225156000,2.060156005859375,0.715303897857666,0.7864103317260742,0.00342559814453125
1741033207235259600,2.070259765625,0.15393733978271484,1.0120368003845215,-0.5170183181762695
1741033207245363200,2.08036328125,-0.1773056983947754,1.026163101196289,-0.9829425811767578
1741033207255466500,2.090466552734375,-0.5612597465515137,0.6987476348876953,-1.4906206130981445
1741033207265570000,2.100570068359375,-1.6038227081298828,0.25777196884155273,-1.8041090965270996
1741033207275673600,2.110673583984375,-2.513803482055664,-0.055848121643066406,-1.9410350322723389
1741033207285777200,2.120777099609375,-2.8100099563598633,-0.20816946029663086,-1.9471378326416016
1741033207295880400,2.13088037109375,-2.8311054706573486,-0.24791622161865234,-1.9491708278656006
1741033207305984000,2.14098388671875,-2.623838424682617,-0.29055309295654297,-2.2094361782073975
1741033207316087600,2.151087646484375,-2.1037254333496094,-0.24457979202270508,-2.6674373149871826
1741033207326191000,2.161191162109375,-1.7272911071777344,0.024438858032226562,-3.0900261402130127
1741033207336294400,2.17129443359375,-1.6679720878601074,0.4824099540710449,-3.2671124935150146
1741033207346398000,2.18139794921875,-2.054814338684082,0.7465043067932129,-3.3449738025665283
1741033207356501500,2.19150146484375,-2.7689783573150635,0.8546590805053711,-3.282257318496704
1741033207366605300,2.201605224609375,-2.9259488582611084,0.9617404937744141,-2.688175678253174
1741033207376709400,2.21170947265625,-2.635603666305542,1.469594955444336,-0.8054428100585938
1741033207386812700,2.221812744140625,-1.7230029106140137,1.8854951858520508,1.7627768516540527
1741033207396916200,2.231916259765625,-0.3687448501586914,2.0900983810424805,4.11372709274292
1741033207407019800,2.242019775390625,1.0016403198242188,2.2743163108825684,5.809157848358154
1741033207417123300,2.252123291015625,1.6717376708984375,2.268857955932617,6.58982515335083
1741033207427226600,2.2622265625,1.5175271034240723,1.8876891136169434,6.145026683807373
1741033207437330200,2.272330078125,0.9316492080688477,1.4180631637573242,4.937880516052246
1741033207447433700,2.282433837890625,0.24506139755249023,1.2102603912353516,3.620431423187256
1741033207457537300,2.292537353515625,-0.708958625793457,1.274613857269287,2.4612784385681152
1741033207467640600,2.302640625,-1.895272970199585,1.3160405158996582,1.6161417961120605
1741033207477744000,2.312744140625,-3.2726826667785645,1.1238842010498047,0.8610882759094238
1741033207487847700,2.32284765625,-4.666594505310059,0.8507404327392578,0.10965919494628906
1741033207497986800,2.33298681640625,-5.200297832489014,0.31104612350463867,-0.7589321136474609
1741033207508292400,2.343292236328125,-5.632203102111816,-0.48647308349609375,-1.698789119720459
1741033207518597600,2.35359765625,-5.9115777015686035,-1.238884449005127,-2.387125253677368
1741033207528835600,2.363835693359375,-5.2604241371154785,-1.7726306915283203,-2.5958127975463867
1741033207538959000,2.373958984375,-3.9403810501098633,-2.003469944000244,-2.4738681316375732
1741033207549062700,2.384062744140625,-2.764573812484741,-1.8957138061523438,-2.121807098388672
1741033207559166200,2.394166259765625,-1.6377067565917969,-1.2650976181030273,-1.4225883483886719
1741033207569269800,2.404269775390625,-0.2582578659057617,-0.30387115478515625,-0.5958051681518555
1741033207579373000,2.414373046875,0.6614298820495605,0.5286641120910645,-0.0877833366394043
1741033207589476600,2.4244765625,0.8288016319274902,1.0307493209838867,0.05374860763549805
1741033207599580200,2.434580078125,0.1504826545715332,1.2737574577331543,-0.012776851654052734
1741033207609684500,2.4446845703125,-0.9227237701416016,1.398500919342041,-0.30321455001831055
1741033207619788000,2.4547880859375,-1.4436230659484863,1.5055646896362305,-0.6328310966491699
1741033207629891300,2.464891357421875,-0.9760329723358154,1.4961023330688477,-0.709012508392334
1741033207639995000,2.474994873046875,-0.9236066341400146,1.1781678199768066,-0.3714027404785156
1741033207650098400,2.485098388671875,-0.9904615879058838,0.5720586776733398,0.1777024269104004
1741033207660202000,2.495201904296875,-0.39891719818115234,-0.20210027694702148,0.7595529556274414
1741033207670305300,2.50530517578125,0.5978221893310547,-0.768223762512207,1.0062932968139648
1741033207680408800,2.515408935546875,1.5565743446350098,-1.2297444343566895,0.8528237342834473
1741033207690512400,2.525512451171875,1.9562716484069824,-1.3760738372802734,0.6759371757507324
1741033207700616000,2.535615966796875,2.0657472610473633,-1.3267574310302734,0.37317323684692383
1741033207710719200,2.54571923828125,2.0535225868225098,-1.192939281463623,0.11645078659057617
1741033207720822800,2.55582275390625,1.8541207313537598,-0.917600154876709,0.15217351913452148
1741033207730926300,2.56592626953125,1.517611026763916,-0.7280006408691406,0.44345617294311523
1741033207741030000,2.57602978515625,1.0572681427001953,-0.6198635101318359,1.1366405487060547
1741033207751133200,2.58613330078125,0.9839181900024414,-0.7033290863037109,1.7068324089050293
1741033207761236700,2.59623681640625,1.7603707313537598,-0.8062539100646973,2.0524845123291016
1741033207771340300,2.60634033203125,2.3063926696777344,-0.8187417984008789,2.1147208213806152
1741033207781443800,2.61644384765625,2.5871949195861816,-0.9260177612304688,1.890413761138916
1741033207791547100,2.626547119140625,2.381089210510254,-1.0604281425476074,1.4489336013793945
1741033207801650700,2.636650634765625,2.08430814743042,-0.9795851707458496,0.699671745300293
1741033207811754200,2.646754150390625,1.66143798828125,-0.6399855613708496,-0.17492103576660156
1741033207821857800,2.65685791015625,1.1020421981811523,-0.018440723419189453,-0.614896297454834
1741033207831961000,2.666961181640625,0.29238414764404297,0.5736546516418457,-0.6134657859802246
1741033207842064600,2.677064697265625,-0.3588118553161621,0.8641295433044434,-0.3761448860168457
1741033207852168200,2.687168212890625,-0.37898683547973633,0.7813229560852051,-0.3186368942260742
1741033207862271700,2.697271728515625,0.10393095016479492,0.42090606689453125,-0.41704225540161133
1741033207872375000,2.707375,0.5828213691711426,0.1445903778076172,-0.5795483589172363
1741033207882478600,2.717478515625,1.347787857055664,-0.01101064682006836,-0.7146792411804199
1741033207892582100,2.72758203125,2.2647252082824707,0.007686614990234375,-0.5330314636230469
1741033207902685700,2.737685791015625,2.842153549194336,0.05559206008911133,-0.6758561134338379
1741033207912789000,2.7477890625,3.2814159393310547,0.23630189895629883,-1.2196054458618164
1741033207922892500,2.757892578125,3.2359070777893066,0.5679726600646973,-1.6573829650878906
1741033207932996000,2.76799609375,2.6590709686279297,1.128952980041504,-1.8245124816894531
1741033207943099600,2.778099609375,2.0915303230285645,2.0242810249328613,-0.9631242752075195
1741033207953203200,2.788203125,2.3491392135620117,3.4605679512023926,1.2055320739746094
1741033207963306800,2.798306640625,3.28446102142334,4.689372539520264,3.396069049835205
1741033207973410800,2.808410888671875,3.654444694519043,5.121587753295898,4.992575645446777
1741033207983514400,2.818514404296875,3.3339638710021973,4.393007755279541,5.506231784820557
1741033207993618000,2.828617919921875,2.7686004638671875,2.681790351867676,4.276292324066162
1741033208003721500,2.838721435546875,1.8781070709228516,0.9875493049621582,2.425105571746826
1741033208013824800,2.84882470703125,1.370560646057129,-0.21623468399047852,0.5208520889282227
1741033208023928300,2.85892822265625,1.0705876350402832,-1.3133883476257324,-0.9557991027832031
1741033208034126800,2.869126953125,1.6807165145874023,-1.3088784217834473,-1.027618408203125
1741033208044432400,2.879432373046875,2.436007499694824,-0.7519044876098633,0.07133150100708008
1741033208054737700,2.889737548828125,2.8634848594665527,-0.8468728065490723,0.8602094650268555
1741033208064927200,2.89992724609375,2.459054946899414,-1.4765291213989258,1.102196216583252
1741033208075039700,2.910039794921875,1.5204124450683594,-1.8498010635375977,1.3620266914367676
1741033208085143000,2.92014306640625,0.39534807205200195,-1.804654598236084,1.8398785591125488
1741033208095246600,2.93024658203125,-0.24858856201171875,-1.6786103248596191,2.061863899230957
1741033208105350100,2.94035009765625,-0.5939245223999023,-1.6882362365722656,1.9356822967529297
1741033208115453700,2.95045361328125,-0.942939281463623,-1.7542591094970703,1.5851998329162598
1741033208125557200,2.96055712890625,-1.291578769683838,-2.1046080589294434,1.0932650566101074
1741033208135661300,2.970661376953125,-0.9924492835998535,-2.7023534774780273,0.4467611312866211
1741033208145764900,2.980764892578125,-0.8554525375366211,-3.2300941944122314,-0.07711982727050781
1741033208155868400,2.990868408203125,-0.9120950698852539,-4.10465669631958,-0.7886228561401367
1741033208165972000,3.000971923828125,-0.791475772857666,-4.867498874664307,-1.6536822319030762
1741033208176075300,3.0110751953125,-0.8905739784240723,-4.80583381652832,-2.3613805770874023
1741033208186178800,3.0211787109375,-0.9226851463317871,-4.262523651123047,-2.649402618408203
1741033208196282400,3.031282470703125,-1.1796069145202637,-3.799013137817383,-2.740557909011841
1741033208206386000,3.041385986328125,-1.7333545684814453,-3.559171199798584,-2.940009593963623
1741033208216489200,3.0514892578125,-2.257204532623291,-3.291335344314575,-3.118447780609131
1741033208226592800,3.0615927734375,-2.7427010536193848,-2.7924180030822754,-3.0617117881774902
1741033208236862700,3.07186279296875,-3.0105066299438477,-1.929093360900879,-2.636437177658081
1741033208247168000,3.08216796875,-3.3168091773986816,-1.1272501945495605,-2.117649793624878
1741033208257463800,3.0924638671875,-3.38016939163208,-0.6457982063293457,-1.5269484519958496
1741033208267601000,3.102600830078125,-3.241489887237549,-0.5040583610534668,-0.9561522006988525
1741033208277704400,3.112704345703125,-2.5064327716827393,-0.7569599151611328,-0.7582826614379883
1741033208287807700,3.122807861328125,-1.5568652153015137,-1.234227180480957,-0.663844108581543
1741033208297911300,3.132911376953125,-0.6665172576904297,-1.607630729675293,-0.4955434799194336
1741033208308014800,3.143014892578125,0.37055301666259766,-1.6878809928894043,-0.3136000633239746
1741033208318118400,3.153118408203125,1.592824935913086,-1.3839139938354492,-0.06439685821533203
1741033208328221700,3.1632216796875,2.1082210540771484,-0.8088445663452148,0.11363410949707031
1741033208338325200,3.1733251953125,2.0829758644104004,-0.11177396774291992,0.32947826385498047
1741033208348428800,3.1834287109375,1.8926973342895508,0.5810890197753906,0.6893582344055176
1741033208358532400,3.193532470703125,1.4156079292297363,1.0366196632385254,0.981236457824707
1741033208368635600,3.2036357421875,0.6460866928100586,1.256523609161377,1.4202876091003418
1741033208378739200,3.2137392578125,-0.016808509826660156,1.175065517425537,1.4959020614624023
1741033208388842800,3.2238427734375,0.16914939880371094,0.9380149841308594,0.9268360137939453
1741033208398947000,3.233947021484375,0.9999723434448242,0.5259823799133301,-0.06245994567871094
1741033208409050600,3.244050537109375,1.4934601783752441,0.14254426956176758,-1.1302814483642578
1741033208419154000,3.25415380859375,1.5675444602966309,-0.07811450958251953,-2.08679461479187
1741033208429281300,3.26428125,0.8576993942260742,-0.04553699493408203,-2.3984360694885254
1741033208439586800,3.2745869140625,-0.29036617279052734,0.43457937240600586,-2.0778183937072754
1741033208449892000,3.28489208984375,-0.31829118728637695,1.2172746658325195,-1.056501865386963
1741033208460139500,3.295139404296875,0.7245650291442871,2.170133113861084,0.6397509574890137
1741033208470265600,3.305265625,1.6052894592285156,2.8992114067077637,2.6131396293640137
1741033208480369000,3.315368896484375,2.2481255531311035,2.9835968017578125,4.0669779777526855
1741033208490472400,3.325472412109375,1.8471670150756836,2.4597487449645996,4.623787879943848
1741033208500576000,3.335575927734375,1.5887985229492188,1.7086443901062012,4.598184585571289
1741033208510679600,3.345679443359375,1.4443697929382324,1.3710575103759766,4.151248931884766
1741033208520782800,3.355782958984375,1.3477535247802734,1.391310214996338,3.40651273727417
1741033208530886400,3.365886474609375,0.3855772018432617,1.6215415000915527,2.899758815765381
1741033208540990000,3.375989990234375,-0.7367773056030273,1.8439216613769531,2.447697639465332
1741033208551093500,3.386093505859375,-1.9775652885437012,1.7797999382019043,2.0432300567626953
1741033208561196800,3.39619677734375,-3.2584352493286133,1.4886064529418945,1.5471839904785156
1741033208571300400,3.40630029296875,-4.460214614868164,0.9565277099609375,0.9081149101257324
1741033208581404000,3.41640380859375,-5.293272495269775,0.23909997940063477,0.12754249572753906
1741033208591507500,3.426507568359375,-5.5616135597229,-0.46559953689575195,-0.6792821884155273
1741033208601611000,3.436611083984375,-5.269389629364014,-1.1278910636901855,-1.263016939163208
1741033208611714300,3.44671435546875,-4.385229110717773,-1.6837139129638672,-1.5686700344085693
1741033208621817900,3.45681787109375,-2.8239526748657227,-1.8906354904174805,-1.6924080848693848
1741033208631921400,3.46692138671875,-1.108672857284546,-1.83866548538208,-1.7307121753692627
1741033208642025000,3.47702490234375,0.1606898307800293,-1.6689181327819824,-1.66845703125
1741033208652128300,3.487128173828125,1.043165683746338,-1.421504020690918,-1.5548932552337646
1741033208662232300,3.497232421875,1.1774544715881348,-0.9517135620117188,-1.1033592224121094
1741033208672336100,3.507336181640625,1.0164709091186523,-0.32795095443725586,-0.5454139709472656
1741033208682439700,3.517439697265625,0.7951278686523438,0.0035080909729003906,-0.2794060707092285
1741033208692543200,3.527543212890625,0.8763718605041504,0.037891387939453125,-0.3597688674926758
1741033208702646500,3.537646484375,0.9421496391296387,-0.11330604553222656,-0.2982001304626465
1741033208712750000,3.54775,0.8664546012878418,-0.4516935348510742,-0.21086406707763672
1741033208722853600,3.557853515625,1.512620449066162,-0.8077044486999512,-0.34618234634399414
1741033208732957200,3.567957275390625,2.0986838340759277,-1.0208048820495605,-0.5355343818664551
1741033208743060500,3.578060546875,2.2749276161193848,-1.3688654899597168,-0.976656436920166
1741033208753164000,3.5881640625,1.8138694763183594,-1.7951140403747559,-1.1414604187011719
1741033208763267600,3.598267578125,0.9033570289611816,-1.810960292816162,-0.6757626533508301
1741033208773371100,3.60837109375,1.2518153190612793,-1.203610897064209,-0.0435633659362793
1741033208783474400,3.618474365234375,1.6005406379699707,-0.42204952239990234,0.6629137992858887
1741033208793578000,3.628577880859375,1.5126776695251465,-0.027901172637939453,0.8388328552246094
1741033208803681500,3.638681640625,1.0311903953552246,0.03835296630859375,0.30306053161621094
1741033208813785000,3.64878515625,0.1675100326538086,-0.23547124862670898,-0.8770046234130859
1741033208823888400,3.658888427734375,-0.13364219665527344,-0.551720142364502,-1.856069803237915
1741033208834122800,3.669122802734375,-0.3350343704223633,-0.36385154724121094,-1.8173537254333496
1741033208844428000,3.679427978515625,0.1485757827758789,0.18884038925170898,-1.3136482238769531
1741033208854733300,3.6897333984375,1.4836664199829102,0.7525181770324707,-0.9441189765930176
1741033208864894200,3.699894287109375,2.5722246170043945,1.0323729515075684,-0.4491291046142578
1741033208875000000,3.71,2.5824570655822754,0.9667878150939941,0.3354167938232422
1741033208885103600,3.720103515625,1.7959790229797363,0.45775604248046875,1.0412631034851074
1741033208895207000,3.73020703125,0.056097984313964844,0.11573219299316406,1.1484694480895996
1741033208905310500,3.740310546875,-0.08225393295288086,0.5264825820922852,1.3881187438964844
1741033208915414000,3.7504140625,0.16422176361083984,1.4580283164978027,1.6309576034545898
1741033208925517600,3.760517578125,0.4288005828857422,1.597571849822998,1.566640853881836
1741033208935620900,3.770620849609375,-0.1132655143737793,0.9223647117614746,0.9479036331176758
1741033208945724400,3.780724365234375,-0.0671834945678711,0.2550845146179199,0.5998973846435547
1741033208955828000,3.790827880859375,0.39520835876464844,-0.23539209365844727,-0.14238262176513672
1741033208965931800,3.800931884765625,0.27797508239746094,-0.7379331588745117,-0.9692800045013428
1741033208976035800,3.811035888671875,0.007918834686279297,-1.1461801528930664,-1.5588209629058838
1741033208986139100,3.82113916015625,0.41624879837036133,-1.368758201599121,-1.745596170425415
1741033208996242700,3.83124267578125,0.7322793006896973,-1.2267417907714844,-1.1402809619903564
1741033209006346200,3.84134619140625,1.692962646484375,-0.23977994918823242,0.3990349769592285
1741033209016449800,3.85144970703125,3.037710666656494,1.6800270080566406,2.848498821258545
1741033209026553000,3.861552978515625,4.290136337280273,3.0997414588928223,5.129140377044678
1741033209036656600,3.87165673828125,4.755290985107422,3.253739356994629,5.742419719696045
1741033209046760200,3.88176025390625,4.207830905914307,2.8361072540283203,5.929394721984863
1741033209056863700,3.89186376953125,3.277496814727783,2.216254711151123,6.470458984375
1741033209066967000,3.901967041015625,2.3858776092529297,1.3898134231567383,6.916053771972656
1741033209077070600,3.912070556640625,2.3588571548461914,0.20440101623535156,7.075087070465088
1741033209087174100,3.922174072265625,2.382266044616699,-1.1660947799682617,6.564570426940918
1741033209097277700,3.932277587890625,2.6310248374938965,-2.3697948455810547,5.2881646156311035
1741033209107381000,3.942381103515625,2.8154568672180176,-2.9632039070129395,3.7645936012268066
1741033209117484500,3.952484619140625,2.835451602935791,-3.4131429195404053,2.2808942794799805
1741033209127588000,3.962588134765625,2.180309295654297,-3.672549247741699,0.950110912322998
1741033209137691600,3.972691650390625,1.6348323822021484,-3.908233642578125,0.3523709774017334
1741033209147795000,3.982794921875,1.2602119445800781,-3.679448366165161,0.3997230529785156
1741033209157898500,3.9928984375,1.0376625061035156,-2.917431354522705,0.9941997528076172
1741033209168002000,4.003001953125,0.6528253555297852,-2.1761293411254883,1.5371696949005127
1741033209178105600,4.013105712890625,-0.6133785247802734,-1.747528076171875,1.379988431930542
1741033209188209000,4.023208984375,-1.6019954681396484,-0.9410350322723389,1.488166093826294
1741033209198312400,4.0333125,-2.2871131896972656,0.3343493938446045,1.9649450778961182
1741033209208416000,4.043416015625,-2.171873092651367,1.631324052810669,2.024168014526367
1741033209218519600,4.05351953125,-2.4233789443969727,2.028618812561035,1.432183027267456
1741033209228622800,4.063622802734375,-2.779171943664551,1.4013335704803467,-0.16131162643432617
1741033209238726400,4.073726318359375,-3.777040958404541,0.36299967765808105,-1.4182597398757935
1741033209248830000,4.083829833984375,-4.451496124267578,-0.4952709674835205,-2.5158982276916504
1741033209258933500,4.09393359375,-5.323204040527344,-1.1860816478729248,-3.071854829788208
1741033209269036800,4.104036865234375,-6.385514259338379,-1.9138737916946411,-3.318122148513794
1741033209279140400,4.114140380859375,-7.008135795593262,-2.404648780822754,-3.8013525009155273
1741033209289244000,4.124243896484375,-7.461747169494629,-2.909276247024536,-4.310128688812256
1741033209299347500,4.134347412109375,-6.622581481933594,-2.9981441497802734,-4.702104091644287
1741033209309451000,4.144450927734375,-4.461143493652344,-2.6885881423950195,-4.988292217254639
1741033209319554300,4.15455419921875,-3.1133084297180176,-2.2181739807128906,-4.932415962219238
1741033209329657900,4.164657958984375,-3.221863269805908,-1.2339134216308594,-4.168567657470703
1741033209339761400,4.174761474609375,-2.9086227416992188,-0.39518022537231445,-2.7446882724761963
1741033209349865000,4.184864990234375,-2.034079074859619,0.16600322723388672,-1.5752044916152954
1741033209359968300,4.19496826171875,-2.097093105316162,0.5243923664093018,-0.8699781894683838
1741033209370071800,4.20507177734375,-1.8189897537231445,0.6361262798309326,-0.4846358299255371
1741033209380175400,4.21517529296875,-0.6876287460327148,0.7016074657440186,-0.03853440284729004
1741033209390279000,4.22527880859375,0.6030063629150391,0.8191449642181396,0.4361298084259033
1741033209400382200,4.23538232421875,1.2396116256713867,0.5527181625366211,1.0944890975952148
1741033209410485800,4.24548583984375,0.3197050094604492,0.3703620433807373,1.062483310699463
1741033209420589300,4.25558935546875,-0.6667270660400391,0.4914088249206543,0.45649194717407227
1741033209430692900,4.26569287109375,-1.0305428504943848,0.44083547592163086,-0.03284502029418945
1741033209440796200,4.275796142578125,-0.7942190170288086,0.5065131187438965,-0.7919459342956543
1741033209450899700,4.285899658203125,0.8350868225097656,0.5249514579772949,-1.3223628997802734
1741033209461003300,4.296003173828125,1.991598129272461,0.440873384475708,-1.8417435884475708
1741033209471106800,4.30610693359375,1.8785896301269531,0.2804839611053467,-1.6456706523895264
1741033209481210000,4.316210205078125,1.0534849166870117,-0.8329684734344482,-2.309291362762451
1741033209491313700,4.326313720703125,0.6724252700805664,-1.557300329208374,-3.4115068912506104
1741033209501417200,4.336417236328125,0.6285314559936523,-1.8007829189300537,-4.1868791580200195
1741033209511521500,4.346521484375,-0.010922431945800781,-0.9224147796630859,-3.360354423522949
1741033209521625000,4.356625,-0.37613964080810547,0.20137500762939453,-1.6095459461212158
1741033209531728400,4.366728271484375,0.7969913482666016,0.742302417755127,0.140977144241333
1741033209541832000,4.37683203125,2.425473213195801,0.5592029094696045,1.1612741947174072
1741033209551935500,4.386935546875,3.0203428268432617,0.6951746940612793,1.481661319732666
1741033209562039000,4.3970390625,2.5284194946289062,0.06177830696105957,1.1127042770385742
1741033209572142300,4.407142333984375,2.385580062866211,0.1855330467224121,0.9517021179199219
1741033209582246000,4.417245849609375,2.088107109069824,0.5978007316589355,1.3578579425811768
1741033209592349400,4.427349365234375,2.081178665161133,0.2172698974609375,2.2646021842956543
1741033209602453000,4.437452880859375,2.5277585983276367,-0.47180986404418945,3.032569408416748
1741033209612556300,4.447556396484375,3.554743766784668,-1.2460618019104004,4.3764190673828125
1741033209622659800,4.457659912109375,4.401049613952637,-1.7516868114471436,5.6158599853515625
1741033209632763400,4.467763427734375,5.481513977050781,-1.3027517795562744,6.119924545288086
1741033209642867000,4.477866943359375,3.975069999694824,-0.06035757064819336,6.003517150878906
1741033209652970200,4.48797021484375,2.681818962097168,1.0957393646240234,5.898525238037109
1741033209663073800,4.49807373046875,0.6493048667907715,2.182973861694336,4.529106140136719
1741033209673177300,4.50817724609375,-1.345125675201416,1.0771913528442383,2.3297486305236816
1741033209683281000,4.518281005859375,-3.1770949363708496,0.4972105026245117,1.747747778892517
1741033209693384400,4.528384521484375,-4.078365325927734,0.07584762573242188,1.2259831428527832
1741033209703487700,4.53848779296875,-3.2681126594543457,-0.6209077835083008,0.20504355430603027
1741033209713591300,4.54859130859375,-1.3172664642333984,-2.220735549926758,-1.8709884881973267
1741033209723694800,4.55869482421875,-1.888791561126709,-2.799065113067627,-2.554145097732544
1741033209733798400,4.56879833984375,-2.1409425735473633,-2.7563395500183105,-2.5480360984802246
1741033209743901700,4.578901611328125,-1.546374797821045,-3.105835437774658,-2.8692030906677246
1741033209754005200,4.589005126953125,0.19789552688598633,-2.5000123977661133,-2.7543742656707764
1741033209764108800,4.59910888671875,1.7445363998413086,-1.3949503898620605,-2.6647586822509766
1741033209774212400,4.60921240234375,-1.3983616828918457,0.8837289810180664,-2.4439237117767334
1741033209784315600,4.619315673828125,-4.937530517578125,1.6719322204589844,-2.8964550495147705
1741033209794419200,4.629419189453125,-6.141209125518799,1.3474864959716797,-2.694138288497925
1741033209804522800,4.639522705078125,-4.454958915710449,1.0597143173217773,-0.6942363977432251
1741033209814626300,4.649626220703125,-1.6793341636657715,0.3473501205444336,1.1132084131240845
1741033209824729600,4.6597294921875,1.71821928024292,-1.164113998413086,1.4214506149291992
1741033209834833200,4.669833251953125,-0.6570682525634766,-2.7103686332702637,2.37628173828125
1741033209844936700,4.679936767578125,-0.34366750717163086,-5.205499649047852,1.9645490646362305
1741033209855040300,4.690040283203125,-0.5723285675048828,-5.834951400756836,0.8599119186401367
1741033209865143600,4.7001435546875,-1.8293819427490234,-3.540585517883301,-0.012659192085266113
1741033209875247000,4.7102470703125,-2.708199977874756,-0.609614372253418,-1.013788104057312
1741033209885350700,4.7203505859375,-2.9714927673339844,0.6480846405029297,-2.85819935798645
1741033209895454200,4.7304541015625,-2.5241780281066895,1.259537696838379,-2.552323341369629
1741033209905557500,4.7405576171875,-1.1860783100128174,1.2347192764282227,-0.4006820619106293
1741033209915661000,4.7506611328125,0.42273473739624023,0.5120439529418945,1.6245708465576172
1741033209925764600,4.7607646484375,1.1675257682800293,-0.28934764862060547,2.7420737743377686
1741033209935868200,4.7708681640625,1.3699455261230469,-1.6077303886413574,2.2910561561584473
1741033209945971500,4.780971435546875,1.0701937675476074,-3.023953437805176,1.1170350313186646
1741033209956075000,4.791074951171875,0.46187782287597656,-3.94932222366333,0.20872288942337036
1741033209966178600,4.801178466796875,-0.6568603515625,-4.26276159286499,0.055226266384124756
1741033209976282000,4.8112822265625,-1.5756616592407227,-3.4055304527282715,0.9627475738525391
1741033209986385400,4.821385498046875,-1.9543030261993408,-3.1735315322875977,1.931281566619873
1741033209996489000,4.831489013671875,-1.8304084539413452,-3.085817337036133,2.5346193313598633
1741033210006592500,4.841592529296875,-1.6961675882339478,-2.6003527641296387,2.321316719055176
1741033210016696000,4.851696044921875,-0.8977410793304443,-2.290581226348877,1.9615676403045654
1741033210026799400,4.86179931640625,-0.11817431449890137,-2.141335964202881,0.7613897919654846
1741033210036903000,4.87190283203125,0.8766763210296631,-0.8971776962280273,-0.9800889492034912
1741033210047006500,4.88200634765625,1.6214637756347656,0.32001495361328125,-2.349851131439209
1741033210057110000,4.892110107421875,2.6145403385162354,0.597498893737793,-3.612877130508423
1741033210067213300,4.90221337890625,2.2089266777038574,1.1198272705078125,-4.426168441772461
1741033210077316900,4.91231689453125,1.6005854606628418,1.390380859375,-3.5147390365600586
1741033210087420400,4.92242041015625,0.7319355010986328,2.2136640548706055,-1.5198408365249634
1741033210097524000,4.93252392578125,0.4190990924835205,4.190192222595215,2.1493260860443115
1741033210107627500,4.94262744140625,-1.4525822401046753,3.7318954467773438,5.4942946434021
1741033210117730800,4.952730712890625,-1.5045431852340698,4.025146484375,7.652421474456787
1741033210127834400,4.96283447265625,-1.918325662612915,3.22841739654541,7.288806438446045
1741033210137938000,4.97293798828125,-1.6480350494384766,2.356501579284668,6.631304740905762
1741033210148041500,4.98304150390625,-1.0474711656570435,1.4923620223999023,5.64888334274292
1741033210158144800,4.993144775390625,-0.8653702735900879,-0.33392810821533203,3.0956296920776367
1741033210168248300,5.003248291015625,-0.2385704517364502,-2.651449203491211,-1.2711963653564453
1741033210178351900,5.013351806640625,0.30176568031311035,-4.093940258026123,-3.3620901107788086
1741033210188455400,5.023455322265625,0.47049570083618164,-5.0139641761779785,-3.6666102409362793
1741033210198558700,5.033558837890625,1.0446338653564453,-5.034201145172119,-2.936030864715576
1741033210208662300,5.043662353515625,1.929516315460205,-3.358107566833496,-2.0143566131591797
1741033210218765800,5.053765869140625,2.238511323928833,-1.4301443099975586,-2.31691837310791
1741033210228869400,5.063869384765625,2.1874520778656006,1.4482994079589844,-1.7819262742996216
1741033210238972700,5.07397265625,1.6028249263763428,4.721997261047363,-0.14619982242584229
1741033210249076200,5.084076171875,1.7406156063079834,6.580120086669922,1.6604558229446411
1741033210259179800,5.0941796875,2.108795642852783,8.133081436157227,2.157510280609131
1741033210269283300,5.104283447265625,2.1792383193969727,9.234585762023926,2.541045665740967
1741033210279386600,5.11438671875,1.0428988933563232,8.67208194732666,2.557793617248535
1741033210289490200,5.124490234375,0.7014942169189453,5.007560729980469,1.4401004314422607
1741033210299593700,5.13459375,-0.1116635799407959,1.7255306243896484,0.4103442430496216
1741033210309697300,5.144697265625,0.06442642211914062,-0.359588623046875,-0.07935011386871338
1741033210319800600,5.154800537109375,0.03497958183288574,-1.7055044174194336,-0.5591142177581787
1741033210329904000,5.164904052734375,0.35460782051086426,-2.2357611656188965,-0.9088382720947266
1741033210340007700,5.175007568359375,0.6745069026947021,-2.561218738555908,-1.0183837413787842
1741033210350111200,5.185111328125,0.6895570755004883,-2.8618950843811035,-0.7535474300384521
1741033210360214500,5.195214599609375,0.6864109039306641,-3.2560086250305176,-0.36834073066711426
1741033210370318000,5.205318115234375,0.5479435920715332,-3.667154312133789,0.03927731513977051
1741033210380421600,5.215421630859375,0.19611120223999023,-4.125655174255371,0.2606257200241089
1741033210390525200,5.225525146484375,-0.15717554092407227,-4.520793914794922,0.3983118534088135
1741033210400628500,5.23562841796875,-0.49895596504211426,-4.7475666999816895,0.4647223949432373
1741033210410732000,5.24573193359375,-0.48212218284606934,-4.832558631896973,0.30486488342285156
1741033210420835600,5.255835693359375,-0.4225451946258545,-4.705367088317871,0.01210641860961914
1741033210430939100,5.265939208984375,-0.1082766056060791,-4.296388626098633,-0.19742631912231445
1741033210441042400,5.27604248046875,0.2504103183746338,-3.623908042907715,-0.044199466705322266
1741033210451146000,5.28614599609375,0.5186960697174072,-2.9467663764953613,0.3008843660354614
1741033210461249500,5.29624951171875,0.8256609439849854,-2.6471261978149414,0.22908198833465576
1741033210471353000,5.30635302734375,1.0401389598846436,-2.51577091217041,0.20116901397705078
1741033210481456400,5.316456298828125,0.850834846496582,-2.4442062377929688,0.3763394355773926
1741033210491560000,5.326559814453125,0.33641791343688965,-2.4297871589660645,0.5754294395446777
1741033210501663500,5.33666357421875,-0.5819355249404907,-2.207247734069824,0.631300687789917
1741033210511767000,5.34676708984375,-0.09629678726196289,-1.877547264099121,0.5240538120269775
1741033210521870600,5.35687060546875,0.8245947360992432,-1.7911229133605957,0.25656187534332275
1741033210531974000,5.366973876953125,1.4007112979888916,-1.5858078002929688,0.1827763319015503
1741033210542077400,5.377077392578125,1.5783107280731201,-1.436955451965332,0.18701386451721191
1741033210552181000,5.387180908203125,1.6319741010665894,-0.6712894439697266,0.4073396921157837
1741033210562284500,5.397284423828125,0.9339245557785034,0.38654232025146484,0.7747712731361389
1741033210572387800,5.407387939453125,0.42303013801574707,1.639791488647461,1.2087126970291138
1741033210582491400,5.417491455078125,0.05305743217468262,3.3064069747924805,1.6341772079467773
1741033210592595000,5.427594970703125,-0.11496388912200928,5.365607261657715,2.075974702835083
1741033210602698500,5.437698486328125,-0.11149811744689941,7.309962272644043,2.32057785987854
1741033210612801800,5.4478017578125,-0.2660048007965088,8.80175495147705,2.324432611465454
1741033210622905300,5.4579052734375,-0.6996074914932251,10.16602897644043,1.8443949222564697
1741033210633009000,5.4680087890625,-0.7361817359924316,10.460443496704102,0.6289882659912109
1741033210643112400,5.478112548828125,0.06869041919708252,9.653815269470215,-0.920475959777832
1741033210653215700,5.4882158203125,-0.48463553190231323,7.894941329956055,-2.51155424118042
1741033210663319300,5.4983193359375,-0.4695063829421997,5.618688583374023,-3.2107865810394287
1741033210673422800,5.5084228515625,0.3060358762741089,3.3615217208862305,-2.9874038696289062
1741033210683526400,5.5185263671875,1.0848180055618286,1.8047876358032227,-1.9762049913406372
1741033210693629700,5.528629638671875,1.6840639114379883,0.6214160919189453,-1.1862823963165283
1741033210703733200,5.538733154296875,2.1350483894348145,-0.1645374298095703,-0.7919875383377075
1741033210713836800,5.5488369140625,2.404546022415161,-0.594538688659668,-0.5348390340805054
1741033210723940400,5.5589404296875,2.7577645778656006,-0.8870830535888672,-0.36356258392333984
1741033210734043600,5.569043701171875,3.1224522590637207,-1.080153465270996,-0.428666353225708
1741033210744147200,5.579147216796875,3.273374557495117,-1.3397369384765625,-0.536344051361084
1741033210754250800,5.589250732421875,3.111304998397827,-1.5906009674072266,-0.6085251569747925
1741033210764354300,5.599354248046875,2.7191226482391357,-1.9191675186157227,-0.6660522222518921
1741033210774457600,5.60945751953125,2.2535252571105957,-2.285768508911133,-0.7079833745956421
1741033210784561200,5.61956103515625,2.0804030895233154,-2.6156134605407715,-0.7160413265228271
1741033210794664700,5.629664794921875,1.9182647466659546,-3.053332805633545,-0.60190749168396
1741033210804768300,5.639768310546875,1.703233242034912,-3.2492871284484863,-0.3787837028503418
1741033210814871600,5.64987158203125,1.7364100217819214,-3.2684736251831055,-0.299907922744751
1741033210824975000,5.65997509765625,1.8722249269485474,-3.063815116882324,-0.4899771809577942
1741033210835078700,5.67007861328125,1.8933851718902588,-2.6857056617736816,-0.5032848119735718
1741033210845182200,5.68018212890625,1.8124644756317139,-2.4138646125793457,-0.5017114281654358
1741033210855285500,5.690285400390625,1.8372809886932373,-2.0329346656799316,-0.5035712122917175
1741033210865389000,5.70038916015625,1.52805495262146,-1.7117938995361328,-0.5883126258850098
1741033210875492600,5.71049267578125,1.3513622283935547,-1.5206212997436523,-0.6199508309364319
1741033210885596200,5.72059619140625,1.2535679340362549,-1.325943946838379,-0.7086868286132812
1741033210895699500,5.730699462890625,1.1701050996780396,-1.0095539093017578,-0.7332360148429871
1741033210905803000,5.740802978515625,1.0501998662948608,-0.48997974395751953,-0.7712794542312622
1741033210915906600,5.750906494140625,0.9632437229156494,0.00189208984375,-0.8522489070892334
1741033210926010000,5.761010009765625,1.2180235385894775,0.2647695541381836,-0.981231689453125
1741033210936113700,5.77111376953125,1.420323133468628,0.37796497344970703,-1.0944139957427979
1741033210946217000,5.781217041015625,1.3290828466415405,0.3751392364501953,-1.273921012878418
1741033210956320500,5.791320556640625,1.164941668510437,0.40761566162109375,-1.3337583541870117
1741033210966424000,5.801424072265625,0.9322414398193359,0.4665803909301758,-1.3440213203430176
1741033210976527600,5.811527587890625,0.8042011260986328,0.6198005676269531,-1.3323193788528442
1741033210986631000,5.821630859375,-0.22427773475646973,1.0074329376220703,-1.3240994215011597
1741033210996734500,5.831734375,-2.2466390132904053,1.7401103973388672,-1.4019660949707031
1741033211006838000,5.841838134765625,-3.475085735321045,2.52386474609375,-1.2342896461486816
1741033211016941600,5.851941650390625,-3.604944944381714,3.0790958404541016,-0.7150071263313293
1741033211027044900,5.862044921875,-2.8743510246276855,3.173358917236328,-0.3159024715423584
1741033211037148400,5.8721484375,-1.7974493503570557,2.91851806640625,-0.26118001341819763
1741033211047252000,5.882251953125,-0.9611248970031738,2.7090272903442383,-0.610058605670929
1741033211057355500,5.89235546875,-0.9168224334716797,3.0179061889648438,-1.1767821311950684
1741033211067458800,5.902458740234375,-1.1828365325927734,3.528813362121582,-1.656131386756897
1741033211077562400,5.912562255859375,-1.213442325592041,3.9520931243896484,-2.0560600757598877
1741033211087666000,5.922666015625,-0.9777978658676147,4.200164794921875,-2.4180588722229004
1741033211097769500,5.93276953125,-0.3302961587905884,3.7978382110595703,-2.656332492828369
1741033211107872800,5.942872802734375,0.40623271465301514,2.9580936431884766,-2.635645866394043
1741033211117976300,5.952976318359375,0.9049813747406006,2.2532243728637695,-2.244520902633667
1741033211128080000,5.963079833984375,1.1459053754806519,1.6272544860839844,-1.7022929191589355
1741033211138183400,5.973183349609375,1.0866589546203613,0.7718620300292969,-1.203502893447876
1741033211148286700,5.98328662109375,0.8421205282211304,-0.2136707305908203,-0.8425087332725525
1741033211158390300,5.993390380859375,0.6580410003662109,-1.1620063781738281,-0.6682219505310059
1741033211168493800,6.003493896484375,0.6201367974281311,-1.7475242614746094,-0.6148964166641235
1741033211178597400,6.013597412109375,0.6193435192108154,-1.9495205879211426,-0.49291345477104187
1741033211188700700,6.02370068359375,0.6425526142120361,-1.7741308212280273,-0.5123623609542847
1741033211198804200,6.03380419921875,0.24168968200683594,-1.4029102325439453,-0.5750771164894104
1741033211208907800,6.04390771484375,-0.7119226455688477,-0.8636865615844727,-0.607681930065155
1741033211219011300,6.05401123046875,-1.1687103509902954,-0.08962059020996094,-0.18799322843551636
1741033211229114600,6.064114501953125,-1.6484768390655518,0.45074462890625,0.8031951189041138
1741033211239218200,6.07421826171875,-1.7305325269699097,0.6246232986450195,2.829617977142334
1741033211249321700,6.08432177734375,-1.1737452745437622,1.1610422134399414,6.992429733276367
1741033211259425300,6.09442529296875,-1.1757941246032715,1.3651762008666992,11.007194519042969
1741033211269528600,6.104528564453125,-0.7022198438644409,0.9797821044921875,12.169641494750977
1741033211279632100,6.114632080078125,0.5189906358718872,0.15581226348876953,11.559440612792969
1741033211289735700,6.124735595703125,1.5464797019958496,-1.8588452339172363,7.560486316680908
1741033211299839200,6.134839111328125,2.074233055114746,-3.4625163078308105,4.21566104888916
1741033211309942800,6.14494287109375,2.29571533203125,-4.504404544830322,2.2545385360717773
1741033211320046000,6.155046142578125,1.9671436548233032,-5.216059684753418,1.4857306480407715
1741033211330149600,6.165149658203125,1.6257727146148682,-5.684208869934082,1.2253086566925049
1741033211340253200,6.175253173828125,1.3063693046569824,-5.8907470703125,1.3460445404052734
1741033211350356700,6.185356689453125,1.0881977081298828,-5.940085411071777,1.5324229001998901
1741033211360460000,6.1954599609375,0.9400500059127808,-6.007577896118164,1.5123224258422852
1741033211370563600,6.2055634765625,0.9425575137138367,-6.206111907958984,1.1911168098449707
1741033211380667100,6.215667236328125,0.9391710162162781,-6.38426399230957,0.7028021812438965
1741033211390770700,6.225770751953125,0.9958165287971497,-6.563666820526123,0.16427898406982422
1741033211400874000,6.2358740234375,1.132540225982666,-6.679556369781494,-0.35643327236175537
1741033211410977500,6.2459775390625,1.3282259702682495,-6.615808486938477,-0.7874469757080078
1741033211421081000,6.2560810546875,1.5689888000488281,-6.380809783935547,-1.070716381072998
1741033211431184600,6.2661845703125,1.9049808979034424,-5.822200775146484,-1.0750499963760376
1741033211441288000,6.276287841796875,2.3173372745513916,-5.205113887786865,-1.053887128829956
1741033211451391500,6.2863916015625,2.6699764728546143,-4.815260410308838,-1.1181423664093018
1741033211461495000,6.2964951171875,2.913639783859253,-4.409448623657227,-1.0842418670654297
1741033211471598600,6.3065986328125,2.921546459197998,-3.818321704864502,-0.8206262588500977
1741033211481702000,6.316701904296875,2.8243350982666016,-2.9264578819274902,-0.45427775382995605
1741033211491805400,6.326805419921875,2.6642444133758545,-1.735816478729248,0.090240478515625
1741033211501909000,6.336908935546875,2.324798107147217,-0.16150379180908203,0.8188700675964355
1741033211512012500,6.347012451171875,1.7186253070831299,1.9779138565063477,1.5427730083465576
1741033211522115800,6.35711572265625,0.6554133892059326,4.470449447631836,1.9209232330322266
1741033211532219400,6.367219482421875,-0.2806551158428192,6.182223320007324,1.6284689903259277
1741033211542322400,6.377322509765625,-1.0946365594863892,6.712441444396973,0.6908073425292969
1741033211552425500,6.387425537109375,-0.4766000211238861,5.659333229064941,-0.16642546653747559
1741033211562529000,6.397529052734375,-0.21340236067771912,3.9115982055664062,-2.010197877883911
1741033211572632600,6.407632568359375,-0.12446817755699158,2.1636972427368164,-3.1095144748687744
1741033211582736100,6.417736083984375,0.5038682818412781,0.3603382110595703,-3.2155861854553223
1741033211592839400,6.42783935546875,0.6249968409538269,-0.715632438659668,-2.846436023712158
1741033211602943000,6.43794287109375,0.5677919983863831,-0.36962413787841797,-2.4056215286254883
1741033211613046500,6.448046630859375,0.33197444677352905,1.5752534866333008,-1.8003660440444946
1741033211623150000,6.458150146484375,-0.5312647223472595,3.842402458190918,-1.35060715675354
1741033211633253400,6.46825341796875,-1.7281159162521362,5.902327537536621,-1.0833537578582764
1741033211643357000,6.47835693359375,-2.4680721759796143,7.613698959350586,-1.1747081279754639
1741033211653460500,6.48846044921875,-2.8111188411712646,8.588342666625977,-1.3819152116775513
1741033211663564000,6.49856396484375,-2.5031962394714355,8.794013977050781,-1.6602833271026611
1741033211673667300,6.508667236328125,-1.1235986948013306,8.063756942749023,-2.102066993713379
1741033211683771000,6.51877099609375,-1.5995371341705322,5.776137351989746,-1.9513355493545532
1741033211693874400,6.52887451171875,-1.9538317918777466,2.9647140502929688,-1.939250111579895
1741033211703978000,6.53897802734375,-2.424445629119873,0.9523496627807617,-2.0205931663513184
1741033211714081300,6.549081298828125,-2.7569427490234375,-0.11268901824951172,-2.03082537651062
1741033211724184800,6.559184814453125,-2.8716907501220703,-0.02476787567138672,-1.4446501731872559
1741033211734288400,6.569288330078125,-3.1909165382385254,0.9621648788452148,-0.6473472118377686
1741033211744392000,6.579391845703125,-3.3364052772521973,2.3739423751831055,0.024461984634399414
1741033211754495500,6.58949560546875,-3.2005724906921387,3.3091468811035156,0.18036890029907227
1741033211764598800,6.599598876953125,-2.735088586807251,3.1796674728393555,-0.13481807708740234
1741033211774702300,6.609702392578125,-1.6534415483474731,2.1318674087524414,-0.7135657072067261
1741033211784806000,6.619805908203125,-0.4505940079689026,1.106414794921875,-0.8077392578125
1741033211794909400,6.629909423828125,0.4433937668800354,0.09797096252441406,-0.530689001083374
1741033211805012700,6.6400126953125,0.8149576187133789,-1.0661449432373047,-0.5537188053131104
1741033211815116300,6.6501162109375,0.9392041563987732,-2.12846040725708,-0.5963858366012573
1741033211825219800,6.6602197265625,1.0070788860321045,-2.9175710678100586,-0.6415121555328369
1741033211835323400,6.670323486328125,1.0979881286621094,-3.5455117225646973,-0.5486552715301514
1741033211845426700,6.6804267578125,1.1253777742385864,-3.996168613433838,-0.3357248306274414
1741033211855530200,6.6905302734375,1.014009714126587,-4.320463180541992,-0.11397802829742432
1741033211865633800,6.7006337890625,0.8252271413803101,-4.469912528991699,0.12395548820495605
1741033211875737300,6.7107373046875,0.5539795160293579,-4.270997047424316,0.3999195098876953
1741033211885840600,6.720840576171875,0.2781265377998352,-3.9197731018066406,0.7044296264648438
1741033211895944200,6.730944091796875,0.04714035987854004,-3.573904514312744,1.0533769130706787
1741033211906047700,6.7410478515625,-0.26612499356269836,-3.3266944885253906,1.314452886581421
1741033211916151300,6.7511513671875,-0.7326617240905762,-3.1076111793518066,1.5189753770828247
1741033211926254600,6.761254638671875,-0.9463143348693848,-3.0065083503723145,1.6733064651489258
1741033211936536300,6.771536376953125,-1.0551586151123047,-2.9482369422912598,1.7815871238708496
1741033211946841900,6.781841796875,-1.1497862339019775,-2.8500847816467285,1.937760591506958
1741033211957128000,6.7921279296875,-1.2475649118423462,-2.7413015365600586,1.979787826538086
1741033211967262700,6.8022626953125,-1.3226609230041504,-2.59805965423584,2.001338243484497
1741033211977366300,6.8123662109375,-1.327077031135559,-2.250800132751465,2.029121160507202
1741033211987469600,6.822469482421875,-1.3140978813171387,-1.7265596389770508,1.9839988946914673
1741033211997573000,6.832572998046875,-1.414564609527588,-1.2157745361328125,1.8430629968643188
1741033212007676700,6.8426767578125,-1.709549903869629,-0.7352933883666992,1.6596219539642334
1741033212017780200,6.8527802734375,-1.9920947551727295,-0.27243614196777344,1.4978158473968506
1741033212027883500,6.862883544921875,-2.157376766204834,0.2382965087890625,1.389183521270752
1741033212037987000,6.872987060546875,-2.264124631881714,0.8111066818237305,1.3343541622161865
1741033212048090600,6.883090576171875,-2.260930061340332,1.4019403457641602,1.2394236326217651
1741033212058194200,6.893194091796875,-2.0905561447143555,1.8861083984375,0.7454351186752319
1741033212068297700,6.903297607421875,-1.935763955116272,2.332594871520996,0.3231121301651001
1741033212078401000,6.913401123046875,-1.6790337562561035,2.770440101623535,-0.04030263423919678
1741033212088504600,6.923504638671875,-1.3697597980499268,2.979055404663086,-0.39878201484680176
1741033212098607400,6.933607421875,-1.3121544122695923,2.797976493835449,-0.592941164970398
1741033212108710700,6.943710693359375,-1.060125470161438,2.5541725158691406,-0.9009237289428711
1741033212118814200,6.953814208984375,-1.0414199829101562,2.7694482803344727,-0.9812330007553101
1741033212128917800,6.963917724609375,-1.1567250490188599,3.5622739791870117,-0.9830455780029297
1741033212139021300,6.974021240234375,-1.0237946510314941,4.704424858093262,-0.9311568737030029
1741033212149124600,6.98412451171875,-0.7239071130752563,5.832242012023926,-0.8618431091308594
1741033212159228200,6.994228271484375,-0.46139973402023315,6.436043739318848,-0.8213307857513428
1741033212169331700,7.004331787109375,0.19667896628379822,5.498032569885254,-0.9696141481399536
1741033212179435300,7.014435302734375,1.1821722984313965,2.9712514877319336,-1.0536695718765259
1741033212189538600,7.02453857421875,2.045484781265259,0.6957902908325195,-0.9330296516418457
1741033212199642000,7.03464208984375,2.4839627742767334,-0.9005947113037109,-0.8938300609588623
1741033212209745700,7.04474560546875,3.0204129219055176,-1.87003755569458,-0.8166177272796631
1741033212219849200,7.05484912109375,3.2877511978149414,-2.0212316513061523,-0.5300326347351074
1741033212229952500,7.064952392578125,3.3602750301361084,-1.186166763305664,0.17689752578735352
1741033212240056000,7.07505615234375,3.051543712615967,-0.32292842864990234,0.6928408145904541
1741033212250159600,7.08515966796875,2.4466612339019775,0.4608316421508789,1.1977462768554688
1741033212260263200,7.09526318359375,1.8064864873886108,1.0908222198486328,1.7135469913482666
1741033212270366500,7.105366455078125,1.1375880241394043,1.5816316604614258,2.046888828277588
1741033212280470000,7.115469970703125,1.1606769561767578,1.7231254577636719,2.3687386512756348
1741033212290573600,7.125573486328125,0.9110085368156433,1.146864891052246,2.433060884475708
1741033212300677000,7.135677001953125,0.7047431468963623,0.3597221374511719,2.4606080055236816
1741033212310780400,7.145780517578125,0.6541783809661865,-0.28460693359375,2.749645948410034
1741033212320884000,7.155884033203125,0.5676979422569275,-0.9154176712036133,2.982297897338867
1741033212331070700,7.16607080078125,0.6147998571395874,-1.8763341903686523,2.8577370643615723
1741033212341376000,7.1763759765625,0.8419913649559021,-2.787170886993408,2.6308107376098633
1741033212351681000,7.186680908203125,0.7681401968002319,-3.464557647705078,2.3383846282958984
1741033212361880600,7.196880615234375,0.5244144201278687,-3.9399638175964355,2.0274741649627686
1741033212371995600,7.20699560546875,0.15940970182418823,-4.306066989898682,1.8106658458709717
1741033212382099000,7.217098876953125,-0.3012371063232422,-4.4643402099609375,1.6072020530700684
1741033212392202500,7.227202392578125,-0.5816577076911926,-4.31589937210083,1.598379373550415
1741033212402306000,7.23730615234375,-0.9929490089416504,-4.015481948852539,1.5487276315689087
1741033212412409600,7.24740966796875,-0.902530312538147,-3.664918899536133,1.5628821849822998
1741033212422513000,7.257512939453125,-0.7687839865684509,-3.286747455596924,1.389866590499878
1741033212432616400,7.267616455078125,-0.43583977222442627,-3.033172130584717,1.2238105535507202
1741033212442720000,7.277719970703125,-0.024434566497802734,-2.8238916397094727,0.931537389755249
1741033212452823600,7.287823486328125,0.3428884446620941,-2.7187623977661133,0.4827425479888916
1741033212462926600,7.297926513671875,1.0517584085464478,-2.9317455291748047,0.1293625831604004
1741033212473029600,7.308029541015625,1.7625882625579834,-3.2366724014282227,-0.2144712209701538
1741033212483133200,7.31813330078125,2.500436544418335,-3.5083932876586914,-0.5537488460540771
1741033212493236500,7.328236572265625,3.479717254638672,-3.6656227111816406,-0.8013310432434082
1741033212503340000,7.338340087890625,3.718883514404297,-3.58566951751709,-0.8012235164642334
1741033212513443600,7.348443603515625,3.2324178218841553,-3.145524024963379,-0.5153474807739258
1741033212523547100,7.358547119140625,3.0030975341796875,-2.372260093688965,-0.1727919578552246
1741033212533650400,7.368650390625,3.085205316543579,-1.5794000625610352,0.08019530773162842
1741033212543754000,7.37875390625,3.6278557777404785,-0.6622829437255859,0.42069339752197266
1741033212553857500,7.388857421875,4.124028205871582,0.3153533935546875,0.7370071411132812
1741033212563961000,7.398961181640625,4.142246246337891,1.0653705596923828,0.9595342874526978
1741033212574064400,7.409064453125,4.061826705932617,1.2725238800048828,0.7500410079956055
1741033212584168000,7.41916796875,3.897808790206909,0.9442644119262695,-0.07842934131622314
1741033212594271500,7.429271484375,3.47930645942688,0.6489887237548828,-0.6220736503601074
1741033212604375000,7.439375,2.7070817947387695,0.6627969741821289,-0.6768540740013123
1741033212614478300,7.449478271484375,2.3951361179351807,0.850560188293457,-0.6608296036720276
1741033212624582000,7.459581787109375,2.5134599208831787,1.0505008697509766,-0.5746486783027649
1741033212634685400,7.469685546875,3.332486629486084,1.1542434692382812,-0.13489556312561035
1741033212644789000,7.4797890625,3.8532493114471436,1.6589908599853516,0.501542329788208
1741033212654892300,7.489892333984375,3.5809106826782227,2.334254264831543,0.9726908802986145
1741033212664995800,7.499995849609375,3.6433510780334473,3.462076187133789,1.411180853843689
1741033212675099400,7.510099365234375,2.972123146057129,4.671192169189453,1.3941092491149902
1741033212685203000,7.520202880859375,2.2465689182281494,5.41860294342041,0.9816727638244629
1741033212695306200,7.53030615234375,1.8118135929107666,5.820503234863281,0.38450127840042114
1741033212705409800,7.540409912109375,1.3871874809265137,5.712277412414551,-0.044976234436035156
1741033212715512600,7.5505126953125,0.8737141489982605,5.206662178039551,0.0640684962272644
1741033212725615900,7.560615966796875,0.4033178985118866,3.994617462158203,0.6403154134750366
1741033212735719400,7.570719482421875,-0.2651180624961853,2.186539649963379,1.0928385257720947
1741033212745823000,7.580822998046875,-0.8267643451690674,0.2521829605102539,1.2669267654418945
1741033212755926500,7.590926513671875,-1.3758330345153809,-0.9695796966552734,1.4355374574661255
1741033212766029800,7.60102978515625,-1.9421663284301758,-1.162541389465332,1.7239943742752075
1741033212776133400,7.61113330078125,-2.415830135345459,-0.6317825317382812,2.086137533187866
1741033212786237000,7.62123681640625,-2.725670337677002,0.4396076202392578,2.402303695678711
1741033212796340500,7.631340576171875,-3.06888747215271,1.583796501159668,2.5863146781921387
1741033212806444000,7.641444091796875,-3.3872861862182617,2.743992805480957,2.794708251953125
1741033212816547300,7.65154736328125,-3.8123302459716797,3.7052087783813477,2.856903553009033
1741033212826651000,7.66165087890625,-4.127431869506836,4.087301254272461,2.7997686862945557
1741033212836754400,7.67175439453125,-4.320445537567139,3.3651790618896484,2.4495058059692383
1741033212846858000,7.68185791015625,-4.037761688232422,1.5383529663085938,1.9256207942962646
1741033212856961300,7.691961181640625,-3.3687922954559326,-0.24406719207763672,1.374008059501648
1741033212867064800,7.70206494140625,-2.6184539794921875,-1.4490728378295898,1.0859110355377197
1741033212877168400,7.71216845703125,-1.8460147380828857,-2.2634191513061523,0.858535885810852
1741033212887272000,7.72227197265625,-1.2075368165969849,-2.7544493675231934,0.7047393918037415
1741033212897375200,7.732375244140625,-0.5990545153617859,-3.0023393630981445,0.6214198470115662
1741033212907478800,7.742478759765625,-0.0961727499961853,-2.9660964012145996,0.8152152895927429
1741033212917582300,7.752582275390625,0.0336814820766449,-2.818121910095215,1.420388102531433
1741033212927685600,7.762685546875,-0.100526362657547,-2.7099175453186035,2.0518054962158203
1741033212937788400,7.772788330078125,-0.2746744155883789,-2.888197422027588,2.3603739738464355
1741033212947892000,7.78289208984375,-0.41006913781166077,-3.3419251441955566,2.4152190685272217
1741033212957995500,7.79299560546875,-0.5523264408111572,-4.012111186981201,2.27074933052063
1741033212968098800,7.803098876953125,-0.7579962015151978,-4.718295097351074,2.070014476776123
1741033212978202400,7.813202392578125,-0.9409782290458679,-5.164705276489258,1.8428114652633667
1741033212988306000,7.823305908203125,-0.7980740070343018,-5.215010643005371,1.8058903217315674
1741033212998409500,7.833409423828125,-0.7529399394989014,-4.541477680206299,2.088561534881592
1741033213008512800,7.8435126953125,-0.8013952970504761,-3.5217504501342773,2.4791617393493652
1741033213018616300,7.8536162109375,-0.8954422473907471,-2.3856124877929688,2.7813525199890137
1741033213028719900,7.863719970703125,-1.0208302736282349,-1.2906312942504883,2.9874231815338135
1741033213038823400,7.873823486328125,-1.269420862197876,-0.02020740509033203,3.1218795776367188
1741033213048926700,7.8839267578125,-1.7323936223983765,1.4166688919067383,3.150240659713745
1741033213059030300,7.8940302734375,-2.454188823699951,2.816836357116699,2.814333915710449
1741033213069133800,7.9041337890625,-3.13845157623291,3.573025703430176,1.6552106142044067
1741033213079237400,7.9142373046875,-3.0385677814483643,3.685919761657715,0.5710839033126831
1741033213089340700,7.924340576171875,-2.89197039604187,3.4998388290405273,-0.31653499603271484
1741033213099444200,7.9344443359375,-2.7538633346557617,3.627346992492676,-0.8688559532165527
1741033213109547800,7.9445478515625,-3.536302328109741,4.064891815185547,-1.5086737871170044
1741033213119650800,7.95465087890625,-4.337165832519531,4.85515022277832,-1.9228686094284058
1741033213129753900,7.96475390625,-4.3820037841796875,5.418729782104492,-1.714598536491394
1741033213139857400,7.974857421875,-3.991349697113037,5.521764755249023,-1.429398775100708
1741033213149961000,7.9849609375,-2.7612688541412354,4.71531867980957,-1.0510265827178955
1741033213160064300,7.995064208984375,-2.434638500213623,3.7220687866210938,-0.6325805187225342
1741033213170167800,8.005167724609375,-2.643413543701172,3.3000640869140625,-0.5122864842414856
1741033213180271400,8.015271240234375,-2.8289988040924072,3.385976791381836,-0.7976593971252441
1741033213190375000,8.025375,-2.774026870727539,3.4779272079467773,-1.2213304042816162
1741033213200478200,8.035478271484376,-2.3583178520202637,3.0960216522216797,-1.7224427461624146
1741033213210581800,8.045581787109375,-2.063671827316284,2.121715545654297,-2.0690391063690186
1741033213220685300,8.055685302734375,-1.4366965293884277,0.8055095672607422,-1.9594635963439941
1741033213230788900,8.065788818359374,-1.0668423175811768,-0.6308670043945312,-1.733899712562561
1741033213240892400,8.075892333984376,-0.7281769514083862,-2.039673328399658,-1.6539273262023926
1741033213250995700,8.08599560546875,-0.5412777662277222,-3.079707145690918,-1.577327013015747
1741033213261099300,8.096099365234375,-0.4254067838191986,-3.496286392211914,-1.5070115327835083
1741033213271202800,8.106202880859374,-0.3727883994579315,-2.908102512359619,-1.301334023475647
1741033213281306400,8.116306396484376,-0.4961002767086029,-1.2584285736083984,-1.0583086013793945
1741033213291409700,8.12640966796875,-0.5450223088264465,0.46492958068847656,-1.2002835273742676
1741033213301512700,8.1365126953125,-0.19122742116451263,1.8013830184936523,-1.5707640647888184
1741033213311616000,8.146615966796874,0.7247514724731445,2.309541702270508,-1.847182035446167
1741033213321719300,8.15671923828125,1.7781580686569214,1.9446477890014648,-2.0003156661987305
1741033213331822800,8.16682275390625,2.107111692428589,1.2384414672851562,-2.245399236679077
1741033213341926400,8.176926513671875,2.3406248092651367,0.42224788665771484,-2.7378876209259033
1741033213352030000,8.187030029296874,2.7995777130126953,-0.2809782028198242,-2.9362025260925293
1741033213362133200,8.19713330078125,2.9951043128967285,-0.9804039001464844,-3.1442930698394775
1741033213372236800,8.20723681640625,3.0264792442321777,-1.6567087173461914,-3.0011227130889893
1741033213382340400,8.21734033203125,3.0690464973449707,-2.0852417945861816,-2.5287277698516846
1741033213392444000,8.22744384765625,3.6921896934509277,-2.3026585578918457,-2.0039784908294678
1741033213402547200,8.237547119140626,4.83235502243042,-2.507894992828369,-1.7508876323699951
1741033213412650800,8.247650634765625,5.3064656257629395,-2.5497727394104004,-1.0989742279052734
1741033213422754300,8.25775439453125,5.256884574890137,-2.343353748321533,-0.5805540084838867
1741033213432917200,8.267917236328126,5.2382049560546875,-2.387699604034424,-0.15421772003173828
1741033213443222500,8.278222412109375,4.8256754875183105,-2.5089478492736816,0.30556774139404297
1741033213453527600,8.288527587890625,4.003108024597168,-2.7071475982666016,0.4409980773925781
1741033213463746300,8.298746337890625,3.3646602630615234,-3.611391544342041,-0.13156604766845703
1741033213473865700,8.30886572265625,2.4113540649414062,-4.517251968383789,-0.604926586151123
1741033213483969300,8.31896923828125,1.4959996938705444,-5.186807632446289,-1.388533115386963
1741033213494072800,8.32907275390625,1.268200159072876,-5.613581657409668,-1.8507332801818848
1741033213504176000,8.339176025390625,1.4301819801330566,-5.824794292449951,-2.060612678527832
1741033213514279700,8.34927978515625,1.50417959690094,-5.788872718811035,-2.117351531982422
1741033213524382500,8.359382568359376,1.7272089719772339,-5.627219200134277,-2.0090184211730957
1741033213534485800,8.36948583984375,1.7678406238555908,-5.119724273681641,-1.7345571517944336
1741033213544589300,8.37958935546875,1.634275197982788,-4.322391510009766,-1.2574491500854492
1741033213554692900,8.38969287109375,1.7802691459655762,-3.138152599334717,-0.41225337982177734
1741033213564796400,8.39979638671875,1.139492154121399,-1.5238885879516602,1.1174449920654297
1741033213574900000,8.40989990234375,0.039949655532836914,0.37068939208984375,3.2619495391845703
1741033213585003300,8.420003173828125,-1.5966596603393555,2.108811855316162,5.074173450469971
1741033213595106800,8.43010693359375,-2.2361063957214355,3.0768494606018066,5.478515625
1741033213605210400,8.44021044921875,-0.366138219833374,3.601015090942383,4.558279037475586
1741033213615314000,8.45031396484375,0.5108448266983032,4.038508415222168,3.913835048675537
1741033213625417200,8.460417236328125,0.6254925727844238,4.100452423095703,3.4369754791259766
1741033213635520800,8.470520751953124,0.5284063816070557,3.5715885162353516,2.912182331085205
1741033213645624300,8.480624267578126,0.326602578163147,3.037586212158203,2.2264113426208496
1741033213655727900,8.490727783203125,0.392475426197052,2.7296218872070312,1.1781930923461914
1741033213665831200,8.5008310546875,0.8954867124557495,2.7460412979125977,0.23549485206604004
1741033213675934000,8.510933837890626,1.5525410175323486,2.581057548522949,-0.5399069786071777
1741033213686037500,8.52103759765625,1.9022713899612427,1.9156036376953125,-1.0153069496154785
1741033213696140800,8.531140869140625,2.0714144706726074,1.4259004592895508,-1.6095436811447144
1741033213706244400,8.541244384765625,2.2779574394226074,1.7949934005737305,-1.6376255750656128
1741033213716348000,8.551347900390626,2.7688348293304443,2.6189403533935547,-1.6336039304733276
1741033213726451500,8.561451416015625,3.1140387058258057,3.1538429260253906,-1.916189193725586
1741033213736554800,8.5715546875,2.986781120300293,3.475240707397461,-2.364668846130371
1741033213746658300,8.581658203125,3.225210428237915,3.958066940307617,-2.542170286178589
1741033213756761900,8.591761962890626,3.471472978591919,4.119302749633789,-2.6412956714630127
1741033213766865400,8.601865478515625,3.4895288944244385,3.9785289764404297,-2.766684055328369
1741033213776968700,8.61196875,3.354156494140625,3.347484588623047,-2.6005845069885254
1741033213787072300,8.622072265625,2.7832930088043213,2.794719696044922,-2.183506727218628
1741033213797175800,8.63217578125,1.8827269077301025,2.60585880279541,-1.3272323608398438
1741033213807279400,8.642279296875,1.004652500152588,2.6231746673583984,-0.3777848482131958
1741033213817382100,8.652382080078125,0.43470630049705505,2.6890220642089844,0.35771477222442627
1741033213827485400,8.6624853515625,-0.3461056351661682,2.621293067932129,1.0935730934143066
1741033213837589000,8.672589111328126,-0.8528363704681396,2.181194305419922,1.6068793535232544
1741033213847692300,8.6826923828125,-1.1298813819885254,1.3663434982299805,1.9243007898330688
1741033213857795800,8.6927958984375,-1.3173553943634033,0.26997947692871094,2.1009654998779297
1741033213867899400,8.7028994140625,-1.430232286453247,-0.6888418197631836,2.191957473754883
1741033213878003000,8.7130029296875,-1.7427470684051514,-1.2853384017944336,2.2492384910583496
1741033213888106200,8.723106201171875,-2.032444953918457,-1.486928939819336,2.5502071380615234
1741033213898209800,8.733209716796875,-2.1989905834198,-1.6590213775634766,2.897549629211426
1741033213908313300,8.743313232421874,-1.9993278980255127,-1.98820161819458,2.9829862117767334
1741033213918417000,8.7534169921875,-1.5486104488372803,-2.3067636489868164,3.005924701690674
1741033213928520200,8.763520263671875,-0.5358701944351196,-2.581973075866699,3.4935383796691895
1741033213938623700,8.773623779296875,0.639854371547699,-2.9283647537231445,4.243438720703125
1741033213948727300,8.783727294921874,1.0613309144973755,-3.0508041381835938,4.935650825500488
1741033213958830300,8.793830322265626,1.5947942733764648,-3.1038966178894043,5.4812703132629395
1741033213968933400,8.803933349609375,1.4111790657043457,-3.1686105728149414,6.002442359924316
1741033213979037000,8.814036865234375,1.158320426940918,-3.2239599227905273,6.225907802581787
1741033213989140500,8.824140380859374,0.7421702146530151,-3.3043618202209473,5.911422252655029
1741033213999244000,8.834244140625,0.35051393508911133,-3.177794933319092,5.9412994384765625
1741033214009347300,8.844347412109375,0.11334395408630371,-2.9775853157043457,5.972686767578125
1741033214019451000,8.854450927734375,0.018887758255004883,-2.5893430709838867,6.0181779861450195
1741033214029554400,8.864554443359374,0.11444294452667236,-2.091881275177002,6.140501022338867
1741033214039658000,8.874657958984375,0.14075195789337158,-1.373194694519043,6.174219131469727
1741033214049761300,8.88476123046875,-0.08251082897186279,-0.9491500854492188,5.649648666381836
1741033214059864800,8.89486474609375,-0.39335036277770996,-0.6611566543579102,4.938131332397461
1741033214069968400,8.904968505859374,-0.8333984613418579,-0.01616668701171875,4.776973724365234
1741033214080072000,8.915072021484375,-1.3934441804885864,0.6067218780517578,4.598301887512207
1741033214090175000,8.925175048828125,-2.0710461139678955,1.446537971496582,4.988232612609863
1741033214100278000,8.935278076171874,-2.6326165199279785,2.2772722244262695,5.542115211486816
1741033214110381600,8.945381591796876,-2.6319236755371094,2.6839752197265625,5.755881309509277
1741033214120484900,8.95548486328125,-2.0622570514678955,2.760152816772461,5.583648681640625
1741033214130588400,8.96558837890625,-1.5300521850585938,2.605205535888672,5.358303070068359
1741033214140692000,8.97569189453125,-1.446915864944458,2.2868709564208984,5.116715431213379
1741033214150795500,8.98579541015625,-1.7107446193695068,2.014676094055176,4.812105178833008
1741033214160898800,8.99589892578125,-3.0647120475769043,2.3723955154418945,4.612950325012207
1741033214171002400,9.00600244140625,-4.793794631958008,3.412698745727539,4.7137346267700195
1741033214181106000,9.01610595703125,-5.310744762420654,4.828441619873047,4.957438945770264
1741033214191209500,9.02620947265625,-5.624378681182861,5.381359100341797,4.758299827575684
1741033214201312800,9.036312744140625,-4.082353591918945,3.0008134841918945,1.1677565574645996
1741033214211416300,9.046416259765625,-3.574986696243286,0.48484039306640625,-1.685135841369629
1741033214221519600,9.05651953125,-3.928462505340576,-0.5916166305541992,-3.333630084991455
1741033214231622400,9.066622314453125,-4.140164852142334,-1.1303834915161133,-3.9547102451324463
1741033214241726000,9.076725830078125,-4.7544264793396,-1.7164735794067383,-4.157435894012451
1741033214251829500,9.08682958984375,-4.944002151489258,-2.032238006591797,-4.856056213378906
1741033214261933000,9.09693310546875,-5.235865592956543,-2.0608582496643066,-5.352779865264893
1741033214272036400,9.107036376953126,-5.803014755249023,-1.4787554740905762,-4.794894218444824
1741033214282140000,9.117139892578125,-5.337223529815674,-0.4947795867919922,-3.11367130279541
1741033214292243500,9.127243408203125,-4.384799003601074,0.5687246322631836,-1.4381043910980225
1741033214302347000,9.137346923828124,-3.093465805053711,1.0601186752319336,-0.9354021549224854
1741033214312450300,9.1474501953125,-1.6136773824691772,1.9779338836669922,-0.9037976264953613
1741033214322553900,9.157553955078125,-0.3311424255371094,2.8779025077819824,-0.8474187850952148
1741033214332657400,9.167657470703125,0.43131494522094727,2.8998546600341797,-1.3867645263671875
1741033214342761000,9.177760986328124,1.429656744003296,2.3777570724487305,-2.5240252017974854
1741033214352863500,9.187863525390625,2.3402302265167236,1.6490182876586914,-3.5577096939086914
1741033214362967000,9.197967041015625,3.2701778411865234,0.8275651931762695,-5.004986763000488
1741033214373070600,9.208070556640624,4.718629837036133,-0.17336034774780273,-6.42295503616333
1741033214383174000,9.218173828125,7.490050315856934,-1.4631690979003906,-7.972992897033691
1741033214393277400,9.22827734375,9.462316513061523,-2.4290852546691895,-8.246054649353027
1741033214403381000,9.238381103515625,8.030330657958984,-2.5764808654785156,-6.81207275390625
1741033214413484500,9.248484619140624,5.183041095733643,-2.384218215942383,-4.871117115020752
1741033214423587800,9.258587890625,2.0388314723968506,-2.3080687522888184,-3.419731616973877
1741033214433691400,9.26869140625,-0.43186116218566895,-2.4494175910949707,-2.563664436340332
1741033214443795000,9.278794921875,-2.1853833198547363,-2.979376792907715,-2.4564497470855713
1741033214453898500,9.2888984375,-2.9676129817962646,-3.6574554443359375,-2.891894578933716
1741033214464001300,9.299001220703126,-3.354299783706665,-4.1707916259765625,-3.50571870803833
1741033214474104600,9.3091044921875,-2.9314255714416504,-4.364914417266846,-3.7422399520874023
1741033214484208000,9.3192080078125,-0.8907556533813477,-4.196619033813477,-3.5589652061462402
1741033214494311700,9.329311767578124,-0.6833102703094482,-3.569018840789795,-3.0518832206726074
1741033214504415000,9.3394150390625,-2.4704325199127197,-2.422807216644287,-2.6043872833251953
1741033214514518500,9.3495185546875,-3.812560558319092,-1.1717009544372559,-2.6597161293029785
1741033214524622000,9.3596220703125,-3.8688812255859375,-0.13824796676635742,-3.365203857421875
1741033214534725600,9.3697255859375,-3.370509147644043,0.2040252685546875,-4.893418312072754
1741033214544829000,9.379828857421876,-2.655090808868408,-0.11269474029541016,-6.369351387023926
1741033214554932500,9.389932373046875,-2.200732469558716,-0.8634481430053711,-7.358415126800537
1741033214565036000,9.4000361328125,-2.2537119388580322,-1.5554046630859375,-7.500698566436768
1741033214575139000,9.41013916015625,-3.224457263946533,-1.015916347503662,-6.430069923400879
1741033214585242000,9.4202421875,-3.753190517425537,0.0246429443359375,-5.212642192840576
1741033214595345700,9.430345703125,-3.643299102783203,0.982182502746582,-4.176982879638672
1741033214605449200,9.44044921875,-2.5854361057281494,1.3810300827026367,-3.5312306880950928
1741033214615552500,9.450552490234376,-1.03898024559021,1.5509986877441406,-2.9572911262512207
1741033214625656000,9.460656005859375,0.8812154531478882,1.8716468811035156,-2.224231481552124
1741033214635759600,9.470759521484375,2.856325387954712,2.60186767578125,-1.4269375801086426
1741033214645863200,9.48086328125,3.493788957595825,3.8778810501098633,-0.6937048435211182
1741033214655966500,9.490966552734376,1.2777658700942993,4.652247428894043,-0.8085532188415527
1741033214666070000,9.501070068359375,-1.3230867385864258,5.374494552612305,-0.4521949291229248
1741033214676173600,9.511173583984375,-2.1820056438446045,5.996795654296875,0.6477212905883789
1741033214686276900,9.52127685546875,-2.529386043548584,6.2534685134887695,1.6953363418579102
1741033214696379600,9.531379638671876,-1.5091811418533325,6.302127838134766,2.2442264556884766
1741033214706483200,9.541483154296875,0.5585283041000366,6.320374488830566,2.6185801029205322
1741033214716586800,9.551586669921875,3.432145595550537,5.856507301330566,2.5783464908599854
1741033214726690000,9.56168994140625,5.302523136138916,4.712033271789551,1.9601120948791504
1741033214736793600,9.571793701171876,4.392045974731445,3.803234100341797,1.9473199844360352
1741033214746897200,9.581897216796875,2.3654239177703857,3.054732322692871,2.376173973083496
1741033214757000700,9.592000732421875,0.1598230004310608,2.5816144943237305,2.6724343299865723
1741033214767104000,9.60210400390625,-1.2040185928344727,2.233623504638672,2.6798839569091797
1741033214777207600,9.61220751953125,-2.3739380836486816,1.4542818069458008,2.614013671875
1741033214787311000,9.62231103515625,-2.8369503021240234,0.6036033630371094,2.330742359161377
1741033214797414000,9.632413818359375,-3.1140432357788086,-0.032599449157714844,2.019399642944336
1741033214807517200,9.64251708984375,-3.5180931091308594,0.16868305206298828,3.0784451961517334
1741033214817620700,9.652620849609375,-4.033267498016357,0.6915616989135742,4.7848992347717285
1741033214827724300,9.662724365234375,-4.164735317230225,0.6133022308349609,5.497435569763184
1741033214837827600,9.67282763671875,-4.286985397338867,0.2514314651489258,5.702267646789551
1741033214847931100,9.68293115234375,-3.900486469268799,-0.27654266357421875,6.093779563903809
1741033214858034700,9.69303466796875,-3.4170005321502686,-1.02508544921875,6.125673294067383
1741033214868138200,9.70313818359375,-2.4552383422851562,-2.4042859077453613,4.680066108703613
1741033214878241800,9.71324169921875,-1.6584101915359497,-3.866455554962158,2.750781536102295
1741033214888345000,9.723344970703126,-0.7975241541862488,-5.380612373352051,0.6349020004272461
1741033214898448400,9.733448486328125,-0.16564643383026123,-6.672443389892578,-0.5808851718902588
1741033214908551400,9.743551513671875,-0.21205449104309082,-7.507309436798096,-1.5042266845703125
1741033214918654700,9.75365478515625,-0.17175626754760742,-8.054161071777344,-2.205183982849121
1741033214928758300,9.76375830078125,-0.20777618885040283,-8.190650939941406,-2.8020458221435547
1741033214938861800,9.77386181640625,-0.10836851596832275,-7.776273250579834,-3.2891411781311035
1741033214948965400,9.78396533203125,-0.16921865940093994,-6.952230453491211,-3.288646936416626
1741033214959068700,9.794068603515624,-0.3689008951187134,-6.375078201293945,-3.270861864089966
1741033214969172200,9.804172119140626,-0.6454606056213379,-5.865789890289307,-3.4633302688598633
1741033214979275800,9.81427587890625,-0.8255089521408081,-5.079704284667969,-3.4765625
1741033214989379300,9.82437939453125,-0.840909481048584,-3.429194450378418,-2.4292116165161133
1741033214999482600,9.834482666015624,-2.158975124359131,1.080759048461914,1.156376838684082
1741033215009585400,9.84458544921875,1.1720857620239258,6.370999336242676,5.195898532867432
1741033215019689000,9.85468896484375,2.665956974029541,10.299982070922852,8.163970947265625
1741033215029792300,9.864792236328125,3.6230409145355225,11.653552055358887,8.824775695800781
1741033215039895800,9.874895751953124,3.0424246788024902,9.786746978759766,6.870737075805664
1741033215049999400,9.884999267578126,2.385596990585327,5.489453315734863,2.2882046699523926
1741033215060103000,9.89510302734375,1.7136415243148804,2.7965917587280273,-1.610762357711792
1741033215070206200,9.905206298828125,0.9373056888580322,1.9017248153686523,-3.832237958908081
1741033215080309800,9.915309814453124,-0.12038516998291016,1.9244318008422852,-5.024282455444336
1741033215090413300,9.925413330078126,-1.290440320968628,2.5737781524658203,-4.65169620513916
1741033215100516900,9.935516845703125,-2.4569389820098877,3.023343086242676,-4.143077373504639
1741033215110619600,9.94561962890625,-3.441732406616211,3.7570371627807617,-3.1090874671936035
1741033215120723000,9.955722900390626,-4.318876266479492,4.985263824462891,-1.4448984861373901
1741033215130826500,9.965826416015625,-5.318248748779297,5.775551795959473,-0.3069908618927002
1741033215140929800,9.9759296875,-5.915887832641602,5.483870506286621,0.5596818923950195
1741033215151033300,9.986033447265624,-5.430269718170166,3.6991796493530273,0.9378268718719482
1741033215161137000,9.996136962890626,-4.019436836242676,1.9051122665405273,1.325815200805664
1741033215171240400,10.006240478515625,-1.8082256317138672,0.831085205078125,2.100517511367798
1741033215181343700,10.01634375,0.16315174102783203,0.12830543518066406,3.2033846378326416
1741033215191447300,10.026447265625,1.1989102363586426,-0.3912925720214844,4.215999603271484
1741033215201550600,10.036550537109376,1.3741284608840942,-1.409571647644043,4.524392127990723
1741033215211653400,10.0466533203125,1.890977144241333,-2.2127327919006348,4.721678733825684
1741033215221757000,10.0567568359375,2.6342363357543945,-2.829192638397217,4.720934867858887
1741033215231860500,10.066860595703124,3.7854573726654053,-2.9344568252563477,4.390288352966309
1741033215241964000,10.076964111328126,5.128583908081055,-2.2987165451049805,3.78493595123291
1741033215252067300,10.0870673828125,6.022214412689209,-1.7125401496887207,3.0714738368988037
1741033215262171000,10.0971708984375,6.36544132232666,-1.47882080078125,2.358165740966797
1741033215272274400,10.1072744140625,6.119170188903809,-1.1854209899902344,1.575258731842041
1741033215282378000,10.1173779296875,5.338106155395508,-0.7919435501098633,0.7846238613128662
1741033215292481300,10.127481201171875,4.140318870544434,-0.6749391555786133,0.298994779586792
1741033215302584000,10.137583984375,2.422654151916504,-0.7986936569213867,0.20113468170166016
1741033215312687600,10.1476875,0.8747090101242065,-1.2471599578857422,0.10641598701477051
1741033215322791200,10.157791259765625,-0.41403067111968994,-1.6927509307861328,0.2054591178894043
1741033215332894500,10.16789453125,-1.1223236322402954,-2.135201930999756,0.3586740493774414
1741033215342998000,10.177998046875,-1.3352906703948975,-2.425698757171631,0.421053409576416
1741033215353101600,10.1881015625,-1.301328182220459,-2.6542491912841797,0.3480818271636963
1741033215363205000,10.198205078125,-0.9265059232711792,-2.9647912979125977,-0.03231501579284668
1741033215373308400,10.208308349609375,-0.35406333208084106,-3.0668044090270996,-0.23422932624816895
1741033215383411700,10.21841162109375,-0.07388341426849365,-2.9950551986694336,-0.27167463302612305
1741033215393514800,10.2285146484375,0.019525885581970215,-2.918667793273926,-0.36086368560791016
1741033215403618000,10.2386181640625,0.14958441257476807,-2.8730874061584473,-0.493757963180542
1741033215413721600,10.2487216796875,0.2247089147567749,-2.8650364875793457,-0.7424135208129883
1741033215423825200,10.2588251953125,0.2679903507232666,-2.881946563720703,-1.015627145767212
1741033215433928700,10.2689287109375,0.3867892026901245,-2.7758073806762695,-1.2195085287094116
1741033215444032000,10.279031982421875,0.40281569957733154,-2.631503105163574,-1.3150334358215332
1741033215454135600,10.289135498046875,0.3816232681274414,-2.585622787475586,-1.3961231708526611
1741033215464239000,10.299239013671874,0.23183906078338623,-2.5616869926452637,-1.5078816413879395
1741033215474342700,10.3093427734375,0.05028855800628662,-2.476156234741211,-1.6235544681549072
1741033215484445200,10.319445068359375,-0.03380000591278076,-2.251215934753418,-1.754578948020935
1741033215494548700,10.329548828125,-0.10555458068847656,-2.048379898071289,-1.9714744091033936
1741033215504652300,10.33965234375,-0.3212839365005493,-1.695666790008545,-2.1619555950164795
1741033215514755600,10.349755615234375,-0.411008358001709,-1.232558250427246,-2.404819965362549
1741033215524859100,10.359859130859375,-0.42666828632354736,-0.7243919372558594,-2.6760125160217285
1741033215534962700,10.369962646484375,-0.39805853366851807,-0.16074275970458984,-2.9998319149017334
1741033215545066200,10.380066162109374,-0.31460702419281006,0.29676151275634766,-3.2808475494384766
1741033215555169500,10.39016943359375,-0.31259822845458984,0.4301185607910156,-3.639160633087158
1741033215565272600,10.4002724609375,-0.17353594303131104,0.35289955139160156,-3.941565990447998
1741033215575376000,10.4103759765625,-0.003857851028442383,0.2628631591796875,-3.9234485626220703
1741033215585479200,10.420479248046876,-0.0013890266418457031,0.3368492126464844,-3.645094394683838
1741033215595582700,10.430582763671875,0.06911158561706543,0.41286659240722656,-3.5556626319885254
1741033215605686300,10.440686279296875,0.4320995807647705,0.42442893981933594,-3.6622376441955566
1741033215615789800,10.450789794921874,0.9753485918045044,0.7547016143798828,-3.654088258743286
1741033215625893000,10.46089306640625,1.2044134140014648,1.6888656616210938,-3.375039577484131
1741033215635996700,10.47099658203125,1.081394076347351,3.5062999725341797,-2.468484878540039
1741033215646100200,10.481100341796875,1.2710254192352295,5.492205619812012,-1.3055939674377441
1741033215656202800,10.49120263671875,1.9568434953689575,6.443111419677734,-0.2607234716415405
1741033215666306300,10.501306396484376,1.6621801853179932,5.318849563598633,0.7442289590835571
1741033215676409900,10.511409912109375,1.4329805374145508,2.728342056274414,1.076006531715393
1741033215686513400,10.521513427734375,1.5413230657577515,0.03938770294189453,0.6710543632507324
1741033215696616700,10.53161669921875,1.3478052616119385,-1.3120746612548828,0.4143742322921753
1741033215706720300,10.54172021484375,0.7652418613433838,-0.7415981292724609,0.8554140329360962
1741033215716823800,10.55182373046875,0.5870146751403809,1.5805244445800781,1.937833309173584
1741033215726927400,10.56192724609375,-0.07742178440093994,3.7102489471435547,2.6209726333618164
1741033215737030100,10.572030029296876,-0.868897020816803,4.752649307250977,3.0293354988098145
1741033215747133400,10.582133544921875,-1.5610311031341553,4.618854522705078,3.4194540977478027
1741033215757237000,10.592237060546875,-2.061546564102173,3.1482391357421875,3.7568397521972656
1741033215767340500,10.602340576171875,-2.5417213439941406,1.1499814987182617,3.7674789428710938
1741033215777443800,10.61244384765625,-2.8609702587127686,-0.22403526306152344,3.3062262535095215
1741033215787547400,10.62254736328125,-2.759861946105957,-1.0822515487670898,2.499795913696289
1741033215797651000,10.63265087890625,-2.653287887573242,-1.9147696495056152,1.4473109245300293
1741033215807754500,10.64275439453125,-2.5818748474121094,-2.525179862976074,0.6815004348754883
1741033215817857800,10.65285791015625,-2.5569376945495605,-2.9225387573242188,0.3469541072845459
1741033215827960600,10.662960693359375,-2.4476499557495117,-3.1241860389709473,0.45226526260375977
1741033215838064000,10.673064208984375,-2.4315848350524902,-3.2657389640808105,0.5327345132827759
1741033215848167400,10.68316748046875,-2.184697151184082,-3.2947025299072266,0.6979538202285767
1741033215858271000,10.69327099609375,-2.029454231262207,-3.255560874938965,1.1327632665634155
1741033215868374500,10.70337451171875,-2.1116745471954346,-3.197716236114502,1.6569888591766357
1741033215878478000,10.71347802734375,-2.0734646320343018,-2.965933322906494,2.3047804832458496
1741033215888581400,10.723581298828124,-1.6256240606307983,-2.593986988067627,2.9682750701904297
1741033215898685000,10.733684814453126,-1.3325904607772827,-2.2989096641540527,3.3415064811706543
1741033215908788000,10.7437880859375,-1.0353565216064453,-2.0740246772766113,3.2720842361450195
1741033215918891000,10.75389111328125,-0.7519406080245972,-1.7705039978027344,3.0688788890838623
1741033215928994600,10.76399462890625,-0.45223259925842285,-1.4030437469482422,2.6305410861968994
1741033215939098000,10.77409814453125,-0.04428642988204956,-1.0603303909301758,2.0146164894104004
1741033215949201700,10.78420166015625,0.17191660404205322,-0.8205795288085938,1.4194588661193848
1741033215959305000,10.794304931640625,0.07375413179397583,-0.4597759246826172,1.0240504741668701
1741033215969408500,10.804408447265626,-0.09962809085845947,-0.013448715209960938,0.857386589050293
1741033215979511800,10.81451171875,0.008283823728561401,0.5424518585205078,0.7290458679199219
1741033215989614600,10.824614501953125,0.4300708472728729,1.2970380783081055,0.6718056201934814
1741033215999718100,10.83471826171875,0.8463669419288635,1.992166519165039,0.49041199684143066
1741033216009821700,10.84482177734375,1.017130970954895,2.6021156311035156,0.11434769630432129
1741033216019925200,10.85492529296875,1.1839910745620728,2.963632583618164,-0.3819624185562134
1741033216030028500,10.865028564453125,1.2157719135284424,3.096935272216797,-0.9447078704833984
1741033216040132000,10.875132080078124,1.307759404182434,2.7446346282958984,-1.6766982078552246
1741033216050235600,10.885235595703126,1.6111043691635132,2.346242904663086,-2.2194161415100098
1741033216060338700,10.895338623046875,2.1669976711273193,2.254283905029297,-2.4612057209014893
1741033216070441700,10.905441650390625,2.2284445762634277,2.7544755935668945,-2.530238151550293
1741033216080545300,10.915545166015624,1.067900538444519,3.9822797775268555,-2.275442361831665
1741033216090648800,10.92564892578125,0.9167935848236084,5.2520599365234375,-2.175935983657837
1741033216100752100,10.935752197265625,2.8707115650177,5.741901397705078,-2.3047895431518555
1741033216110855700,10.945855712890625,4.219249248504639,5.208621978759766,-1.6426953077316284
1741033216120959200,10.955959228515624,3.830752372741699,4.169338226318359,-0.6886167526245117
1741033216131062800,10.966062744140626,1.8619991540908813,3.2557363510131836,-0.13646745681762695
1741033216141165300,10.976165283203125,-0.16787035763263702,1.9990224838256836,-0.2468639612197876
1741033216151268900,10.986268798828124,-0.9645479917526245,0.5821552276611328,-0.5203696489334106
1741033216161372400,10.996372314453126,-0.5968120098114014,-0.6282539367675781,-0.6168390512466431
1741033216171475700,11.006475830078125,-0.062239646911621094,-1.4824914932250977,-0.5441783666610718
1741033216181579300,11.016579345703125,0.07793641090393066,-1.7793998718261719,-0.03799998760223389
1741033216191682800,11.026682861328124,0.4161979556083679,-1.422297477722168,1.0610918998718262
1741033216201786400,11.036786376953126,0.7952992916107178,-0.6533479690551758,2.3580892086029053
1741033216211889700,11.0468896484375,1.0694611072540283,-0.05399322509765625,3.642076015472412
1741033216221992700,11.05699267578125,0.8244426846504211,0.1461658477783203,4.5289154052734375
1741033216232096000,11.067095947265624,0.2637947201728821,0.09319496154785156,4.905700206756592
1741033216242199600,11.077199462890626,-0.3168899714946747,-0.08260345458984375,4.519577980041504
1741033216252302800,11.087302734375,-0.6172317266464233,-0.3513050079345703,3.7443041801452637
1741033216262406400,11.097406494140625,-0.8391647338867188,-0.6848049163818359,2.7067999839782715
1741033216272510000,11.107510009765624,-0.9425147175788879,-1.1668434143066406,1.525376558303833
1741033216282613500,11.117613525390626,-1.0016781091690063,-1.442488670349121,0.666862964630127
1741033216292716000,11.127716064453125,-1.1394929885864258,-1.615401268005371,0.06880998611450195
1741033216302819600,11.137819580078125,-1.378295660018921,-1.8128662109375,-0.09647631645202637
1741033216312923100,11.147923095703124,-1.3640072345733643,-1.937281608581543,0.010565996170043945
1741033216323026400,11.1580263671875,-1.1761348247528076,-2.145939350128174,0.1402747631072998
1741033216333130000,11.1681298828125,-1.0278499126434326,-2.431582450866699,0.16805791854858398
1741033216343233500,11.178233642578125,-0.7392529845237732,-2.667433738708496,0.17561626434326172
1741033216353337000,11.188337158203124,-0.5026090741157532,-2.808549404144287,0.05746746063232422
1741033216363440000,11.198440185546875,-0.20031166076660156,-2.7388668060302734,-0.04420304298400879
1741033216373543200,11.208543212890625,0.13235735893249512,-2.65755033493042,-0.15259742736816406
1741033216383646700,11.218646728515624,0.4276235103607178,-2.6316680908203125,-0.32301366329193115
1741033216393750000,11.22875,0.7662067413330078,-2.671600818634033,-0.5639362335205078
1741033216403853600,11.238853515625,1.1345579624176025,-2.7803874015808105,-0.7924162149429321
1741033216413957000,11.24895703125,1.497430443763733,-2.859633445739746,-0.9972521066665649
1741033216424060700,11.259060791015624,1.6771996021270752,-2.9538097381591797,-1.087563395500183
1741033216434164000,11.2691640625,1.7561311721801758,-3.0986146926879883,-1.2270126342773438
1741033216444266800,11.279266845703125,1.8518235683441162,-3.243466377258301,-1.2960439920425415
1741033216454370300,11.289370361328125,1.9606091976165771,-3.3566336631774902,-1.4432730674743652
1741033216464473600,11.2994736328125,2.0615651607513428,-3.2782392501831055,-1.5831860303878784
1741033216474577200,11.3095771484375,2.3450098037719727,-3.004826068878174,-1.5676852464675903
1741033216484680700,11.3196806640625,2.5636181831359863,-2.57584810256958,-1.4015871286392212
1741033216494784300,11.3297841796875,2.685370922088623,-1.983424186706543,-1.121140480041504
1741033216504887300,11.33988720703125,2.6823253631591797,-1.3489160537719727,-0.7865395545959473
1741033216514990300,11.349990234375,2.376845121383667,-0.8206462860107422,-0.66692054271698
1741033216525094000,11.360093994140625,2.158059597015381,-0.4435434341430664,-0.6894934773445129
1741033216535197200,11.370197265625,2.0688133239746094,-0.05424785614013672,-0.86772620677948
1741033216545300700,11.38030078125,2.271355628967285,0.5937404632568359,-1.0119974613189697
1741033216555404300,11.390404296875,2.3035569190979004,1.2160844802856445,-1.3007575273513794
1741033216565507800,11.4005078125,2.041400909423828,1.3923978805541992,-1.6154438257217407
1741033216575610600,11.410610595703124,1.0756765604019165,1.7034025192260742,-1.3563482761383057
1741033216585714000,11.4207138671875,-0.2428649663925171,2.7248029708862305,-0.5624477863311768
1741033216595817500,11.4308173828125,1.0799593925476074,4.043802261352539,0.25849688053131104
1741033216605920800,11.440920654296875,3.073430061340332,5.465187072753906,1.1382359266281128
1741033216616024300,11.4510244140625,2.514890193939209,6.582069396972656,1.7487789392471313
1741033216626128000,11.4611279296875,1.704904317855835,6.435456275939941,1.8283010721206665
1741033216636231400,11.4712314453125,0.7541524171829224,4.394255638122559,1.7621656656265259
1741033216646334700,11.481334716796875,-0.4861791133880615,2.0496129989624023,2.1400604248046875
1741033216656437500,11.4914375,-1.3761996030807495,0.36329078674316406,2.5152764320373535
1741033216666541000,11.501541015625,-1.5743643045425415,-0.04973316192626953,3.0678796768188477
1741033216676644400,11.511644287109375,-0.9192237257957458,0.7467079162597656,3.4259862899780273
1741033216686748000,11.521747802734374,-0.5533411502838135,1.4011363983154297,3.0904040336608887
1741033216696851500,11.5318515625,-0.730161190032959,1.3709602355957031,2.2846288681030273
1741033216706955000,11.541955078125,-1.5043797492980957,1.0359125137329102,1.1550267934799194
1741033216717057800,11.552057861328125,-2.552238941192627,0.7515583038330078,0.021816492080688477
1741033216727161000,11.5621611328125,-3.23276686668396,0.5491418838500977,-0.7423876523971558
1741033216737264600,11.5722646484375,-3.892331123352051,0.5039243698120117,-1.0939477682113647
1741033216747368200,11.5823681640625,-4.491600513458252,0.5125064849853516,-1.1877285242080688
1741033216757471500,11.592471435546875,-4.622405529022217,0.5101613998413086,-1.163730502128601
1741033216767575000,11.602574951171874,-4.63458251953125,0.04783916473388672,-1.2718936204910278
1741033216777678600,11.6126787109375,-4.8322343826293945,-0.6985721588134766,-0.9766908884048462
1741033216787781000,11.622781005859375,-4.2231340408325195,-1.4749011993408203,-0.45442765951156616
1741033216797884700,11.632884765625,-3.571441888809204,-2.2649269104003906,0.0697638988494873
1741033216807988200,11.64298828125,-2.921968936920166,-2.7617135047912598,0.3619495630264282
1741033216818091800,11.653091796875,-2.1928305625915527,-3.070862293243408,0.28342342376708984
1741033216828195000,11.663195068359375,-1.2990540266036987,-3.3940634727478027,0.1732100248336792
1741033216838298600,11.673298583984375,-0.3284229040145874,-3.526937484741211,0.2329235076904297
1741033216848401700,11.683401611328126,0.7621590495109558,-3.434342384338379,0.5095160007476807
1741033216858504700,11.693504638671875,1.5609402656555176,-3.326993465423584,0.6120610237121582
1741033216868608300,11.703608154296875,2.0823822021484375,-3.3081979751586914,0.49369537830352783
1741033216878711800,11.7137119140625,2.495264768600464,-3.1557064056396484,0.34958064556121826
1741033216888815400,11.7238154296875,2.7170603275299072,-2.641348361968994,0.2136300802230835
1741033216898918700,11.733918701171875,2.605674982070923,-1.8798918724060059,0.1337794065475464
1741033216909022200,11.744022216796875,2.5226476192474365,-1.0459213256835938,0.1288090944290161
1741033216919125000,11.754125,2.289780855178833,-0.2260580062866211,0.03150618076324463
1741033216929228300,11.764228271484376,1.94205641746521,0.24878501892089844,-0.29446637630462646
1741033216939331800,11.774331787109375,1.421273112297058,0.39920902252197266,-0.7379237413406372
1741033216949435400,11.784435302734375,1.0008699893951416,0.5372257232666016,-1.1689683198928833
1741033216959539000,11.7945390625,0.9274283647537231,0.7777233123779297,-1.358473300933838
1741033216969642200,11.804642333984376,1.1687393188476562,1.0856647491455078,-1.3206448554992676
1741033216979745500,11.81474560546875,1.4157581329345703,1.457071304321289,-1.1242682933807373
1741033216989848600,11.8248486328125,1.6122679710388184,1.814478874206543,-0.8822190761566162
1741033216999952000,11.834951904296876,1.64069402217865,2.1403322219848633,-0.7055851221084595
1741033217010055400,11.845055419921875,1.4346301555633545,2.3014917373657227,-0.783423662185669
1741033217020159000,11.855158935546875,0.9167399406433105,2.138477325439453,-1.1310772895812988
1741033217030262500,11.865262451171875,0.36411339044570923,1.6805200576782227,-1.5939035415649414
1741033217040365300,11.875365234375,-0.09788581728935242,1.2409658432006836,-1.984571933746338
1741033217050468600,11.885468505859375,-0.3465474545955658,1.0553770065307617,-1.9756784439086914
1741033217060572200,11.895572265625,-0.2601955831050873,1.4320611953735352,-1.3751485347747803
1741033217070675500,11.905675537109374,-0.07439279556274414,2.118605613708496,-0.7763381004333496
1741033217080779000,11.915779052734376,-0.062357038259506226,3.0517616271972656,-0.40490543842315674
1741033217090882600,11.925882568359375,-0.3459494113922119,4.2414045333862305,-0.18962645530700684
1741033217100986000,11.935986083984375,-0.9578222036361694,5.2731475830078125,0.1275721788406372
1741033217111088600,11.946088623046874,-1.4590535163879395,5.590651512145996,0.4056668281555176
1741033217121192200,11.956192138671875,-1.5657323598861694,4.682974815368652,0.6755752563476562
1741033217131295700,11.966295654296875,-1.183869481086731,3.118607521057129,0.970625638961792
1741033217141399000,11.97639892578125,-1.1256517171859741,1.9239892959594727,1.2714508771896362
1741033217151502600,11.986502685546874,-1.0821239948272705,0.9864568710327148,1.8269000053405762
1741033217161606100,11.996606201171875,-0.7379149794578552,0.11170291900634766,2.2225217819213867
1741033217171709200,12.006709228515625,-0.12935543060302734,-0.7130775451660156,2.323958396911621
1741033217181812200,12.016812255859374,0.03433579206466675,-1.3368253707885742,2.5026655197143555
1741033217191915800,12.026915771484376,0.28573763370513916,-1.5979633331298828,3.1337528228759766
1741033217202019300,12.037019287109375,0.8389626145362854,-1.6017036437988281,3.6467905044555664
1741033217212123000,12.047122802734375,1.2516510486602783,-1.4577674865722656,3.8950138092041016
1741033217222226200,12.05722607421875,1.359505534172058,-1.296910285949707,3.873518466949463
1741033217232329000,12.067328857421876,1.191694736480713,-1.087906837463379,3.9003522396087646
1741033217242432500,12.0774326171875,1.0826246738433838,-0.9385843276977539,3.7855751514434814
1741033217252535800,12.087535888671875,0.8793312907218933,-0.989527702331543,3.5120086669921875
1741033217262639400,12.097639404296874,0.7417961359024048,-1.2595176696777344,3.0445027351379395
1741033217272743000,12.107742919921876,0.47876816987991333,-1.6550359725952148,2.610927104949951
1741033217282846200,12.11784619140625,0.2042679786682129,-2.0505332946777344,2.1735317707061768
1741033217292949000,12.127948974609374,0.08751392364501953,-2.313375473022461,1.6405508518218994
1741033217303052500,12.138052490234376,0.1315443515777588,-2.3003296852111816,1.0054702758789062
1741033217313156000,12.148156005859375,0.17538225650787354,-2.1608099937438965,0.4624500274658203
1741033217323259400,12.15825927734375,0.3164811134338379,-2.13566255569458,0.21964502334594727
1741033217333363000,12.168363037109375,0.3635519742965698,-2.133718490600586,0.09624218940734863
1741033217343466500,12.178466552734376,0.30288970470428467,-2.4853034019470215,-0.15263772010803223
1741033217353569500,12.188569580078125,0.27405786514282227,-2.906726360321045,-0.505052924156189
1741033217363672600,12.198672607421875,0.16055631637573242,-3.2119264602661133,-0.7842655181884766
1741033217373776100,12.208776123046874,0.20678067207336426,-3.394369602203369,-1.0067684650421143
1741033217383879700,12.218879638671876,0.21107101440429688,-3.5011682510375977,-1.1285994052886963
1741033217393983000,12.22898291015625,0.1790602207183838,-3.510484218597412,-1.2484488487243652
1741033217404086500,12.23908642578125,0.12962722778320312,-3.4072017669677734,-1.3665715456008911
1741033217414189300,12.249189208984374,0.028301239013671875,-3.104158878326416,-1.4092276096343994
1741033217424292600,12.259292724609375,-0.12946605682373047,-2.7178516387939453,-1.2782373428344727
1741033217434396200,12.269396240234375,-0.004395246505737305,-2.6189188957214355,-1.334976315498352
1741033217444499700,12.279499755859375,0.12659335136413574,-2.563079833984375,-1.3790069818496704
1741033217454603300,12.289603271484374,0.292494535446167,-2.4870119094848633,-1.595933198928833
1741033217464706300,12.299706298828125,0.6727299690246582,-2.3670315742492676,-1.8001384735107422
1741033217474809300,12.309809326171875,1.047375202178955,-2.1870265007019043,-1.8691675662994385
1741033217484913000,12.319912841796874,1.4028210639953613,-1.9089512825012207,-1.9814097881317139
1741033217495016200,12.33001611328125,1.8054609298706055,-1.573352336883545,-2.0523407459259033
1741033217505119700,12.34011962890625,2.33719539642334,-1.115279197692871,-2.228634834289551
1741033217515223300,12.350223388671875,2.704507350921631,-0.4957847595214844,-2.2168569564819336
1741033217525326800,12.360326904296874,2.6148083209991455,0.05792713165283203,-2.1142349243164062
1741033217535430000,12.370429931640626,2.609025478363037,0.4947357177734375,-2.381589412689209
1741033217545687600,12.3806875,2.9846811294555664,0.9279823303222656,-2.917971611022949
1741033217555992800,12.390992919921874,3.253861904144287,1.2026214599609375,-3.536393165588379
1741033217566297300,12.40129736328125,2.7582764625549316,0.7927064895629883,-3.903134346008301
1741033217576437500,12.4114375,1.8493279218673706,-0.1361980438232422,-3.8326010704040527
1741033217586541000,12.421541015625,1.356537103652954,-0.8853893280029297,-2.88577938079834
1741033217596644400,12.431644287109375,1.1032745838165283,-0.7406492233276367,-1.2530968189239502
1741033217606747100,12.4417470703125,-0.5296436548233032,0.31832122802734375,0.003577113151550293
1741033217616850700,12.4518505859375,-0.6363481283187866,2.5888328552246094,1.0364128351211548
1741033217626954200,12.461954345703125,4.1764984130859375,5.3059492111206055,2.728531837463379
1741033217637057500,12.4720576171875,3.392263889312744,7.387571334838867,3.4091434478759766
1741033217647161000,12.4821611328125,2.616182804107666,7.985391616821289,3.039337635040283
1741033217657264600,12.4922646484375,1.4672898054122925,6.274810791015625,1.5858803987503052
1741033217667487000,12.502487060546875,-0.1807640790939331,4.442191123962402,0.16508746147155762
1741033217677792300,12.512792236328124,-2.5465714931488037,3.2769975662231445,0.24516570568084717
1741033217688097000,12.523096923828126,-6.980400085449219,3.050826072692871,1.9089601039886475
1741033217698267400,12.533267333984375,-12.491676330566406,2.824216842651367,3.4615249633789062
1741033217708375300,12.543375244140625,-11.739924430847168,2.555331230163574,5.486253261566162
1741033217718478800,12.553478759765625,-7.258576393127441,2.229055404663086,5.303144931793213
1741033217728581400,12.563581298828124,-3.7998580932617188,1.494023323059082,3.2285947799682617
1741033217738685000,12.573684814453125,-1.4102684259414673,1.5353450775146484,2.133972644805908
1741033217748788500,12.58378857421875,-0.28942549228668213,1.4736194610595703,1.3095135688781738
1741033217758891800,12.593891845703125,-0.2749740481376648,0.5260000228881836,0.01581597328186035
1741033217768995300,12.603995361328124,-0.47221049666404724,-0.3624134063720703,-1.0872128009796143
1741033217779098600,12.6140986328125,-0.7264803647994995,-1.1683111190795898,-1.804029941558838
1741033217789201400,12.624201416015625,-0.885860800743103,-1.8662986755371094,-2.0760908126831055
1741033217799305000,12.634304931640624,-1.0515751838684082,-2.5533528327941895,-2.149768352508545
1741033217809408500,12.644408447265626,-0.8268432021141052,-3.1211190223693848,-1.851851463317871
1741033217819512000,12.654511962890625,-0.0521104633808136,-3.346850872039795,-1.0387203693389893
1741033217829615400,12.664615478515625,0.8486467599868774,-3.3451833724975586,-0.5190932154655457
1741033217839718400,12.674718505859374,1.4585427045822144,-3.191387176513672,-0.09601318836212158
1741033217849821700,12.68482177734375,1.6232285499572754,-2.988259792327881,0.30258238315582275
1741033217859925000,12.694925048828125,1.5017261505126953,-2.7509918212890625,0.45673859119415283
1741033217870028500,12.705028564453125,1.3161860704421997,-2.4719457626342773,0.618826150894165
1741033217880132000,12.715132080078124,1.1513330936431885,-2.240752696990967,0.8011962175369263
1741033217890234600,12.725234619140625,1.056810736656189,-1.903904914855957,1.0277235507965088
1741033217900338200,12.735338134765625,1.034886121749878,-1.5518379211425781,1.1328097581863403
1741033217910441700,12.745441650390624,0.8596317172050476,-1.4519672393798828,0.7806892395019531
1741033217920545300,12.755545166015626,0.5238487720489502,-1.2167749404907227,0.29952311515808105
1741033217930648600,12.765648681640625,0.11542403697967529,-0.8473281860351562,-0.15014827251434326
1741033217940752000,12.775751953125,0.22998511791229248,-0.4146595001220703,-0.4462282657623291
1741033217950938000,12.785938232421875,0.6318901777267456,-0.3139076232910156,-0.6698848009109497
1741033217961243400,12.796243408203125,0.7011958360671997,-0.13812732696533203,-0.7399610280990601
1741033217971548200,12.806548095703125,0.6290028095245361,0.2219085693359375,-0.8211902379989624
1741033217981748000,12.816748046875,0.5572859048843384,0.42754077911376953,-1.0964045524597168
1741033217991862800,12.82686279296875,0.7234578132629395,0.45921897888183594,-1.5554862022399902
1741033218001966300,12.83696630859375,0.7916038036346436,0.4357585906982422,-1.9738588333129883
1741033218012069000,12.847069091796875,0.8749971389770508,0.45712757110595703,-2.2409846782684326
1741033218022172400,12.85717236328125,0.9267643094062805,0.6138191223144531,-2.405827760696411
1741033218032276000,12.86727587890625,0.9359484910964966,0.9534378051757812,-2.4065513610839844
1741033218042379500,12.877379638671876,0.96526038646698,1.3916654586791992,-2.3156142234802246
1741033218052483000,12.887483154296875,0.7960900664329529,1.7542104721069336,-2.2425572872161865
1741033218062586400,12.89758642578125,0.5848755836486816,1.8987255096435547,-2.166002035140991
1741033218072689200,12.907689208984374,0.2964613735675812,1.9154510498046875,-2.0746264457702637
1741033218082792700,12.917792724609376,-0.0101240873336792,2.017986297607422,-2.0259058475494385
1741033218092896000,12.92789599609375,-0.20727455615997314,2.3392562866210938,-1.8952800035476685
