"Time (s)","Acceleration x (m/s^2)","Acceleration y (m/s^2)","Acceleration z (m/s^2)","Absolute acceleration (m/s^2)"
1.263557000E-3,5.547161102E0,9.696913958E-1,6.512066841E0,8.609199280E0
3.641474000E-3,6.496513367E0,1.272981644E0,6.222535133E0,9.085434039E0
6.019391000E-3,7.006184578E0,1.467996716E0,6.216553211E0,9.480884480E0
8.397307000E-3,7.124629498E0,1.563111424E0,6.505486488E0,9.773690053E0
1.079907800E-2,7.000801086E0,1.586441398E0,6.940382004E0,9.984834226E0
1.322449500E-2,6.889534473E0,1.591227055E0,7.246663570E0,1.012481218E1
1.564991100E-2,6.784250259E0,1.610967875E0,7.416553974E0,1.017971227E1
1.807532800E-2,6.705885410E0,1.605584025E0,7.500302792E0,1.018829432E1
2.050074500E-2,6.658029079E0,1.603789330E0,7.506882668E0,1.016143586E1
2.292616100E-2,6.606583118E0,1.588235974E0,7.447062492E0,1.008107999E1
2.535157800E-2,6.578467846E0,1.510469317E0,7.390830994E0,1.000910283E1
2.777704700E-2,6.526423931E0,1.476969719E0,7.334599495E0,9.928343197E0
3.020267200E-2,6.503692150E0,1.368694544E0,7.274180889E0,9.853174308E0
3.262829700E-2,6.525825500E0,1.235294700E0,6.799803734E0,9.505244988E0
3.505392200E-2,7.017550468E0,1.182652593E0,5.200799942E0,8.814363379E0
3.747157800E-2,7.074978352E0,1.177268744E0,5.441876888E0,9.003071944E0
3.986532800E-2,6.908677101E0,1.168893814E0,6.006583214E0,9.229039708E0
4.225907800E-2,6.687341213E0,1.173081279E0,6.431309223E0,9.351919082E0
4.465282800E-2,6.585047722E0,1.138983607E0,6.612565517E0,9.401391380E0
4.704267200E-2,6.529414654E0,1.118644595E0,6.763313293E0,9.467155230E0
4.942079700E-2,6.619145870E0,1.073180914E0,6.843472958E0,9.581123705E0
5.179892200E-2,6.616752625E0,1.006780148E0,6.988836765E0,9.676717465E0
5.417704700E-2,6.611967087E0,9.056833982E-1,7.166503906E0,9.792708993E0
5.655517200E-2,6.605985165E0,7.387840152E-1,7.309474945E0,9.879942600E0
5.893329700E-2,6.579664230E0,6.436693072E-1,7.543373585E0,1.003039264E1
6.131142200E-2,6.550950050E0,5.126622319E-1,7.818548203E0,1.021310262E1
6.368954700E-2,6.535995007E0,4.127618968E-1,8.009973526E0,1.034646215E1
6.606767200E-2,6.490531445E0,2.967100143E-1,8.228917122E0,1.048475619E1
6.844579700E-2,6.479165554E0,2.093719840E-1,8.447860718E0,1.064846344E1
7.082392200E-2,6.471388817E0,1.633101404E-1,8.630910873E0,1.078879817E1
7.320204700E-2,6.440880299E0,9.990034252E-2,8.773283958E0,1.088418258E1
7.558022400E-2,6.402595043E0,2.751746029E-2,8.848658562E0,1.092212154E1
7.795855700E-2,6.424728870E0,-7.776673418E-3,8.915657043E0,1.098936495E1
8.033689100E-2,6.430710793E0,-4.546362907E-2,8.949156761E0,1.102014133E1
8.271522400E-2,6.441478729E0,-1.100698411E-1,8.985647202E0,1.105651931E1
8.509350500E-2,6.372086525E0,-1.543370634E-1,8.974879265E0,1.100798639E1
8.747163000E-2,6.284748554E0,-2.015953064E-1,8.955139160E0,1.094226770E1
8.984975500E-2,6.214758396E0,-2.709871531E-1,8.950951576E0,1.090028394E1
9.222788000E-2,6.101099491E0,-3.403790295E-1,8.888139725E0,1.078602339E1
9.460600500E-2,6.021538258E0,-4.061816335E-1,8.823533058E0,1.069011890E1
9.698413000E-2,5.939583778E0,-4.731806815E-1,8.711071014E0,1.055392409E1
9.936225500E-2,5.899504185E0,-5.210371017E-1,8.572885513E0,1.041969267E1
1.017403800E-1,5.879763603E0,-6.005984545E-1,8.487939835E0,1.034299092E1
1.041185050E-1,5.863013744E0,-6.179464459E-1,8.374280930E0,1.024135582E1
1.064966300E-1,5.864210129E0,-6.765705943E-1,8.306085587E0,1.019008175E1
1.088747550E-1,5.851647854E0,-7.316055298E-1,8.157132149E0,1.006557669E1
1.112528800E-1,5.840879917E0,-7.728816867E-1,8.089534760E0,1.000768689E1
1.136310050E-1,5.798407555E0,-8.075776696E-1,7.999206066E0,9.912669144E0
1.160091300E-1,5.778666496E0,-7.902296782E-1,7.957331657E0,9.865930089E0
1.183872550E-1,5.779862881E0,-7.657032609E-1,7.935796261E0,9.847333583E0
1.207653800E-1,5.811567783E0,-7.992027402E-1,7.953742504E0,9.883069611E0
1.231435050E-1,5.819942951E0,-8.309076428E-1,7.953144073E0,9.890128620E0
1.255216300E-1,5.810969830E0,-9.439685345E-1,7.995616913E0,9.929165966E0
1.278997550E-1,5.828916073E0,-1.011565804E0,8.002197266E0,9.951617408E0
1.302778800E-1,5.827121258E0,-1.070189953E0,8.121239662E0,1.005262067E1
1.326560050E-1,5.923432350E0,-1.144367456E0,8.325826645E0,1.028182946E1
1.350341300E-1,5.982655048E0,-1.198205948E0,8.548358917E0,1.050249014E1
1.374122550E-1,6.071189404E0,-1.218544960E0,8.848059654E0,1.079964593E1
1.397903800E-1,6.170491219E0,-1.237089276E0,9.065806389E0,1.103604083E1
1.421685050E-1,6.284748554E0,-1.263410330E0,9.223134995E0,1.123211864E1
1.445466300E-1,6.403193474E0,-1.293918848E0,9.337391853E0,1.139570091E1
1.469247550E-1,6.514459610E0,-1.335793257E0,9.269196510E0,1.140791530E1
1.493028800E-1,6.646064758E0,-1.375872970E0,9.037093163E0,1.130186958E1
1.516810050E-1,6.821339130E0,-1.439282775E0,8.394619942E0,1.091200469E1
1.540591300E-1,7.019345284E0,-1.517647743E0,8.060222626E0,1.079544588E1
1.564372550E-1,7.192824841E0,-1.610967875E0,7.980661869E0,1.086383498E1
1.588153800E-1,7.311269760E0,-1.720439434E0,7.922635555E0,1.091708439E1
1.611935050E-1,7.396214962E0,-1.826321840E0,8.618349075E0,1.150284261E1
1.635716300E-1,7.324429989E0,-2.060220242E0,9.468997002E0,1.214716783E1
1.659497550E-1,7.120441914E0,-2.221735716E0,1.045962620E1,1.284681217E1
1.683278800E-1,7.066005230E0,-2.138585329E0,1.083649540E1,1.311226943E1
1.707060050E-1,7.063014030E0,-2.137987137E0,1.068814087E1,1.298820663E1
1.730841300E-1,6.812964439E0,-2.237289190E0,1.049133110E1,1.270787062E1
1.754622550E-1,6.068198204E0,-2.525026083E0,1.037946606E1,1.228544268E1
1.778403800E-1,5.815755367E0,-2.603390932E0,1.048056316E1,1.226551503E1
1.802185050E-1,5.809175014E0,-2.645863533E0,1.076112175E1,1.251194827E1
1.825966300E-1,5.890531063E0,-2.684148788E0,1.080120182E1,1.259241723E1
1.849747550E-1,6.067600250E0,-2.649452925E0,1.059601688E1,1.249443666E1
1.873528800E-1,6.285346985E0,-2.607578516E0,1.022931671E1,1.228592580E1
1.897310050E-1,6.455237389E0,-2.608176708E0,9.837491989E0,1.205192616E1
1.921091300E-1,6.638288021E0,-2.548356056E0,9.382257462E0,1.177232949E1
1.944872550E-1,6.811768055E0,-2.437089920E0,9.158528328E0,1.167125668E1
1.968653800E-1,7.012166977E0,-2.218146563E0,8.859425545E0,1.151434240E1
1.992435050E-1,7.189833641E0,-1.954337835E0,8.440083504E0,1.125824825E1
2.016216300E-1,7.365706444E0,-1.699502230E0,8.092526436E0,1.107388475E1
2.039997550E-1,7.466803074E0,-1.408774376E0,7.734200954E0,1.084230869E1
2.063778800E-1,7.505686283E0,-1.183848977E0,7.340581894E0,1.056508247E1
2.087560050E-1,7.528418064E0,-1.028913736E0,6.905686378E0,1.026763100E1
2.111341300E-1,7.549355507E0,-8.542376757E-1,6.556932449E0,1.003572886E1
2.135122550E-1,7.568498135E0,-7.507480979E-1,6.129813194E0,9.768336425E0
2.158903800E-1,7.584649563E0,-5.694918036E-1,5.919843197E0,9.638245348E0
2.182685050E-1,7.712665558E0,-2.177468538E-1,5.860022545E0,9.688781550E0
2.206466300E-1,7.783253670E0,-7.836493850E-2,5.755336761E0,9.680345035E0
2.230247550E-1,7.878966808E0,-3.589234129E-2,5.629713535E0,9.683650175E0
2.254028800E-1,7.922037601E0,-4.366901144E-2,5.586642742E0,9.693872491E0
2.277810050E-1,7.957331657E0,-7.657032460E-2,5.489733219E0,9.667582994E0
2.301591300E-1,7.945965767E0,-1.351944804E-1,5.395216942E0,9.605467993E0
2.325372550E-1,7.915457249E0,-1.381855011E-1,5.302495003E0,9.528379293E0
2.349153800E-1,7.829914093E0,-1.704886109E-1,5.242076397E0,9.424223364E0
2.372935050E-1,7.778468132E0,-1.674975902E-1,5.227719307E0,9.373455664E0
2.396716300E-1,7.711469173E0,-1.657029688E-1,5.178666592E0,9.290468339E0
2.420497550E-1,7.545167923E0,-1.896311939E-1,5.138586521E0,9.130749718E0
2.444278800E-1,7.250252724E0,-3.607180119E-1,5.016552448E0,8.823949258E0
2.468060050E-1,7.201199532E0,-4.055834413E-1,5.153541565E0,8.864579137E0
2.491841300E-1,7.224529743E0,-4.516452849E-1,5.249852657E0,8.941966584E0
2.515622550E-1,7.180860519E0,-4.941178858E-1,5.374877930E0,8.983218969E0
2.539403800E-1,7.159325123E0,-5.048855543E-1,5.447858810E0,9.010549997E0
2.563185050E-1,7.110272408E0,-5.156532526E-1,5.471786976E0,8.986786116E0
2.586966300E-1,7.054041386E0,-5.353940725E-1,5.563312531E0,8.999810720E0
2.610747550E-1,6.977470875E0,-5.102694035E-1,5.669793129E0,9.005111260E0
2.634528800E-1,6.971488953E0,-4.869394004E-1,5.773880959E0,9.065123801E0
2.658310050E-1,6.873981476E0,-4.360919297E-1,5.822933674E0,9.019332241E0
2.682091300E-1,6.780063152E0,-4.181457460E-1,5.827121258E0,8.949829293E0
2.705872550E-1,6.697510719E0,-3.924229145E-1,5.708078384E0,8.808677791E0
2.729653800E-1,6.570092678E0,-3.314059377E-1,5.533402443E0,8.596190452E0
2.753435050E-1,6.395416737E0,-3.050848842E-1,5.368297577E0,8.355420450E0
2.777216300E-1,6.235695839E0,-2.895315289E-1,5.154737949E0,8.095619459E0
2.800997550E-1,6.108277798E0,-3.212364316E-1,4.913661480E0,7.845911014E0
2.824778800E-1,5.953342915E0,-3.870390654E-1,4.655236244E0,7.567252843E0
2.848560050E-1,5.848058701E0,-4.821537733E-1,4.439284325E0,7.357955432E0
2.872341300E-1,5.732006550E0,-6.149554253E-1,4.183850288E0,7.123108345E0
2.896122550E-1,5.592026711E0,-7.244270444E-1,3.982853174E0,6.903526395E0
2.919903800E-1,5.475376606E0,-8.422735929E-1,3.796213150E0,6.715683738E0
2.943685050E-1,5.361119270E0,-9.786644578E-1,3.619144201E0,6.541986602E0
2.967466300E-1,5.266004562E0,-1.040279627E0,3.537189960E0,6.428428935E0
2.991247550E-1,5.170291424E0,-1.118644595E0,3.451646566E0,6.316418539E0
3.015028800E-1,5.133202553E0,-1.220339537E0,3.463012457E0,6.311216389E0
3.038810050E-1,5.097908497E0,-1.263410330E0,3.516851187E0,6.320847963E0
3.062591300E-1,5.067998409E0,-1.323829174E0,3.648456335E0,6.383444618E0
3.086372550E-1,5.067998409E0,-1.380060434E0,3.751945972E0,6.454941770E0
3.110153800E-1,5.032704353E0,-1.493121386E0,3.845864296E0,6.507549213E0
3.133935050E-1,4.988437176E0,-1.651645780E0,4.012763500E0,6.611710077E0
3.157716300E-1,4.929812908E0,-1.836491346E0,4.183252335E0,6.721261479E0
3.181497550E-1,5.133202553E0,-1.959721804E0,4.700700283E0,7.230965437E0
3.205278800E-1,5.183452129E0,-2.075773716E0,5.163711071E0,7.605322118E0
3.229060050E-1,4.646861553E0,-2.461616278E0,4.824528694E0,7.136452488E0
3.252841300E-1,4.298107624E0,-2.763710260E0,4.704887390E0,6.946062835E0
3.276622550E-1,4.165306091E0,-2.948555708E0,4.775475979E0,6.989200700E0
3.300403800E-1,4.043272018E0,-3.086741209E0,4.893322468E0,7.058372665E0
3.324185050E-1,3.910470486E0,-3.257827997E0,4.977669239E0,7.119158218E0
3.347966300E-1,3.822534084E0,-3.406183004E0,5.060820103E0,7.199010321E0
3.371747550E-1,3.751347780E0,-3.509672642E0,5.107480049E0,7.244084806E0
3.395528800E-1,3.801596880E0,-3.567698479E0,5.149952412E0,7.328207224E0
3.419310050E-1,3.908675671E0,-3.637090445E0,5.201398373E0,7.453906186E0
3.443091300E-1,4.009174347E0,-3.624528170E0,5.226522923E0,7.518458968E0
3.466872550E-1,4.179064751E0,-3.628117323E0,5.294120312E0,7.658689664E0
3.490653800E-1,4.341776848E0,-3.634099483E0,5.391627789E0,7.818398523E0
3.514435050E-1,4.505684853E0,-3.601198196E0,5.522634506E0,7.985569255E0
3.538216300E-1,4.686343193E0,-3.588635683E0,5.714060307E0,8.215266507E0
3.561997550E-1,4.873581409E0,-3.559921980E0,5.931807518E0,8.462338961E0
3.585778800E-1,5.096712112E0,-3.569493294E0,6.102295876E0,8.715260850E0
3.609560050E-1,5.214558601E0,-3.584448338E0,6.235695839E0,8.883906454E0
3.633341300E-1,5.297709465E0,-3.607778311E0,6.340980053E0,9.016086620E0
3.657122550E-1,5.563312531E0,-3.582653761E0,6.562914371E0,9.319747815E0
3.680903800E-1,5.956932068E0,-3.548556089E0,7.076773167E0,9.907472353E0
3.704685050E-1,6.154938221E0,-3.440878868E0,7.793423176E0,1.051001221E1
3.728466300E-1,6.151947021E0,-3.425923824E0,8.534600258E0,1.106448407E1
3.752247550E-1,5.980860233E0,-3.397209883E0,9.094520569E0,1.140272022E1
3.776028800E-1,5.827121258E0,-3.351148129E0,9.414560318E0,1.156803708E1
3.799810050E-1,5.679962635E0,-3.409173965E0,9.562317848E0,1.163281416E1
3.823591300E-1,5.598008633E0,-3.456432343E0,9.498309135E0,1.155432826E1
3.847372550E-1,5.670391560E0,-3.617947817E0,9.360722542E0,1.152675207E1
3.871153800E-1,5.833701611E0,-3.735196114E0,9.192028046E0,1.150987159E1
3.894935050E-1,6.102295876E0,-3.858426571E0,9.047860146E0,1.157537230E1
3.918716300E-1,6.436094761E0,-4.022335052E0,8.927620888E0,1.171771777E1
3.942497550E-1,6.908079147E0,-4.165904045E0,8.861818314E0,1.198366129E1
3.966278800E-1,7.298109055E0,-4.225724697E0,8.930612564E0,1.228311792E1
3.990060050E-1,7.523632526E0,-4.206582069E0,9.019146919E0,1.247579217E1
4.013841300E-1,7.526623726E0,-4.163511276E0,9.087342262E0,1.251258088E1
4.037622550E-1,7.408178806E0,-4.064807415E0,9.141180992E0,1.244849238E1
4.061403800E-1,7.222734928E0,-3.953541279E0,9.208179474E0,1.235269030E1
4.085185050E-1,7.038487911E0,-3.885943890E0,9.248857498E0,1.225488625E1
4.108966300E-1,6.864409924E0,-3.815953970E0,9.312865257E0,1.218240894E1
4.132747550E-1,6.787241459E0,-3.814159393E0,9.313464165E0,1.213898980E1
4.156528800E-1,6.759724140E0,-3.844667673E0,9.318249702E0,1.213693196E1
4.180310050E-1,6.731009960E0,-3.966701746E0,9.320642471E0,1.216205550E1
4.204091300E-1,6.636493683E0,-4.215555191E0,9.288339615E0,1.216910871E1
4.227872550E-1,6.580860615E0,-4.457230568E0,9.242277145E0,1.218992689E1
4.251653800E-1,6.447460651E0,-4.719244480E0,9.155537605E0,1.215174416E1
4.275435050E-1,6.272186279E0,-4.975874901E0,8.992227554E0,1.203992559E1
4.299216300E-1,6.075376511E0,-5.197809219E0,8.792427063E0,1.188419935E1
4.322997550E-1,5.903093338E0,-5.452644825E0,8.458029747E0,1.166688106E1
4.346778800E-1,5.742774487E0,-5.648856163E0,8.135597229E0,1.144888541E1
4.370560050E-1,5.595615864E0,-5.773283005E0,7.743174076E0,1.116236795E1
4.394341300E-1,5.434100151E0,-5.939583778E0,7.222136974E0,1.081514505E1
4.418122550E-1,5.319244862E0,-6.107679844E0,6.742974281E0,1.053877702E1
4.441903800E-1,5.172086239E0,-6.235695839E0,6.254240036E0,1.023473972E1
4.465685570E-1,5.087738991E0,-6.369693756E0,5.752943993E0,9.977697689E0
4.489468910E-1,4.939383984E0,-6.489933014E0,5.283352375E0,9.717538628E0
4.513252240E-1,4.619344234E0,-6.631708145E0,4.946562767E0,9.475567386E0
4.537035570E-1,4.371088982E0,-6.684350014E0,4.582255363E0,9.207823750E0
4.560818390E-1,4.256831646E0,-6.718447685E0,4.280161381E0,9.032050510E0
4.584599640E-1,4.200001717E0,-6.695715904E0,4.039084435E0,8.876194509E0
4.608380890E-1,4.189234257E0,-6.578467846E0,3.763311863E0,8.659586540E0
4.632162140E-1,4.225724697E0,-6.407979012E0,3.470789194E0,8.424091753E0
4.655943390E-1,4.289732933E0,-6.253043652E0,3.212364435E0,8.235390022E0
4.679724640E-1,4.456632137E0,-6.111867428E0,3.122035265E0,8.183128843E0
4.703505890E-1,4.697709084E0,-6.019743443E0,3.129812002E0,8.252363596E0
4.727287140E-1,5.055436134E0,-6.002395630E0,3.229712248E0,8.486296543E0
4.751068390E-1,5.444269657E0,-6.065805435E0,3.300300598E0,8.793523282E0
4.774849640E-1,6.029314995E0,-6.093322754E0,3.515056372E0,9.264817472E0
4.798630890E-1,6.677769661E0,-6.101099491E0,3.905086517E0,9.852193835E0
4.822412140E-1,7.408777237E0,-5.985645771E0,4.471587181E0,1.052202582E1
4.846193390E-1,8.068597794E0,-5.824728489E0,5.178068161E0,1.121793752E1
4.869974640E-1,8.507082939E0,-5.626722336E0,5.957530022E0,1.181196971E1
4.893755890E-1,8.796015739E0,-5.425127029E0,6.752545357E0,1.234498947E1
4.917537140E-1,8.976674080E0,-5.254040241E0,7.509275436E0,1.282867234E1
4.941318390E-1,9.145368576E0,-5.130809784E0,8.124231339E0,1.326522183E1
4.965099640E-1,9.209376335E0,-5.044070244E0,8.557929993E0,1.354597442E1
4.988880890E-1,9.306883812E0,-5.090131760E0,8.808578491E0,1.378834953E1
5.012662140E-1,9.373284340E0,-5.181059361E0,8.953942299E0,1.395976068E1
5.036443390E-1,9.397810936E0,-5.334797859E0,9.055039406E0,1.409867573E1
5.060224640E-1,9.439684868E0,-5.514259815E0,9.093324661E0,1.421981945E1
5.084005890E-1,9.478569031E0,-5.696114540E0,9.046066284E0,1.428706782E1
5.107787140E-1,9.439086914E0,-5.887540340E0,8.971888542E0,1.429175556E1
5.131568390E-1,9.411569595E0,-5.996413708E0,8.888737679E0,1.426689445E1
5.155349640E-1,9.340981483E0,-6.109474182E0,8.830113411E0,1.423202420E1
5.179130890E-1,9.280562401E0,-6.199803352E0,8.743971825E0,1.417827364E1
5.202912140E-1,9.189037323E0,-6.314060688E0,8.611170769E0,1.408751331E1
5.226693390E-1,9.118449211E0,-6.391827583E0,8.419146538E0,1.396007179E1
5.250474640E-1,8.988637924E0,-6.460621357E0,8.263612747E0,1.381385304E1
5.274255890E-1,8.885746956E0,-6.555137634E0,8.137989998E0,1.371689504E1
5.298037140E-1,8.852845192E0,-6.690930367E0,7.950751305E0,1.365122205E1
5.321818390E-1,8.788837433E0,-6.850651264E0,7.834101200E0,1.362160885E1
5.345599640E-1,8.798408508E0,-6.991827965E0,7.769495010E0,1.366245598E1
5.369380890E-1,8.743971825E0,-7.123433113E0,7.771887779E0,1.369680920E1
5.393162140E-1,8.700901031E0,-7.255636692E0,7.808378696E0,1.375938663E1
5.416943390E-1,8.684749603E0,-7.329813957E0,7.844270706E0,1.380882440E1
5.440724640E-1,8.749954224E0,-7.415955544E0,7.878368378E0,1.391498415E1
5.464505890E-1,8.949156761E0,-7.428517818E0,7.988438606E0,1.410976382E1
5.488287140E-1,9.288339615E0,-7.487142086E0,8.157731056E0,1.445265115E1
5.512068390E-1,9.699904442E0,-7.514061451E0,8.377870560E0,1.485725347E1
5.535849640E-1,1.015992451E1,-7.482356548E0,8.708079338E0,1.533102643E1
5.559630890E-1,1.053619671E1,-7.404589653E0,9.105886459E0,1.577201817E1
5.583412140E-1,1.083709335E1,-7.323233604E0,9.485149384E0,1.615674477E1
5.607193390E-1,1.106501007E1,-7.137191772E0,9.816555023E0,1.642372390E1
5.630974640E-1,1.133300591E1,-6.991827965E0,1.002891827E1,1.667038940E1
5.654755890E-1,1.159023476E1,-6.855436802E0,1.008455086E1,1.682345748E1
5.678537140E-1,1.188096237E1,-6.728617191E0,1.004447079E1,1.695060322E1
5.702318390E-1,1.217587757E1,-6.645466805E0,9.903892517E0,1.704409900E1
5.726099640E-1,1.250728416E1,-6.454638958E0,9.701101303E0,1.709403076E1
5.749880890E-1,1.288056469E1,-6.337390900E0,9.477372169E0,1.720151311E1
5.773662140E-1,1.331127262E1,-6.139982700E0,9.229117393E0,1.732241248E1
5.797443390E-1,1.364746380E1,-5.928217888E0,8.959325790E0,1.736855072E1
5.821224640E-1,1.401715469E1,-5.687739372E0,8.691927910E0,1.744650726E1
5.845005890E-1,1.440479279E1,-5.346164227E0,8.429315567E0,1.752520722E1
5.868787140E-1,1.475713539E1,-4.989035130E0,8.193622589E0,1.760110700E1
5.892568390E-1,1.512622833E1,-4.702494621E0,7.946564198E0,1.772185435E1
5.916349640E-1,1.546959877E1,-4.456034184E0,7.718049526E0,1.785309540E1
5.940130890E-1,1.581057549E1,-4.200001717E0,7.409375191E0,1.795865118E1
5.963912140E-1,1.620359612E1,-3.887738705E0,7.189235687E0,1.814817206E1
5.987693390E-1,1.654696655E1,-3.478565931E0,6.981658459E0,1.829333425E1
6.011474640E-1,1.684427452E1,-2.969492912E0,6.633502483E0,1.834532168E1
6.035255890E-1,1.705065536E1,-2.469393015E0,6.239284992E0,1.832352115E1
6.059037140E-1,1.722353745E1,-2.007578135E0,5.791228771E0,1.828165591E1
6.082818390E-1,1.746341705E1,-1.517049551E0,5.280361176E0,1.830722777E1
6.106599640E-1,1.754058647E1,-1.084546804E0,4.733003139E0,1.820026742E1
6.130380890E-1,1.759741592E1,-7.160521746E-1,4.269393921E0,1.812207224E1
6.154162140E-1,1.761775398E1,-4.588237405E-1,3.768695593E0,1.802217637E1
6.177943390E-1,1.772423553E1,-1.884347796E-1,3.214159012E0,1.801429574E1
6.201724640E-1,1.784387589E1,6.759724021E-2,2.666202545E0,1.804209278E1
6.225505890E-1,1.801077652E1,2.901297510E-1,2.173879385E0,1.814381431E1
6.249287140E-1,1.810289955E1,5.306084156E-1,1.731805444E0,1.819328633E1
6.273068390E-1,1.814896202E1,8.081758618E-1,1.250848055E0,1.820995858E1
6.296849640E-1,1.812623024E1,1.134197950E0,7.411768436E-1,1.817679760E1
6.320630890E-1,1.805564117E1,1.412363529E0,2.554338276E-1,1.811259770E1
6.344412140E-1,1.797727585E1,1.673181176E0,-2.548356056E-1,1.805676946E1
6.368193390E-1,1.798086548E1,1.852044702E0,-7.369893789E-1,1.809101286E1
6.391974640E-1,1.795215225E1,1.968694806E0,-1.221535921E0,1.810104085E1
6.415755890E-1,1.788993835E1,2.031506538E0,-1.618744493E0,1.807753431E1
6.439537140E-1,1.797787476E1,2.193022013E0,-1.966302037E0,1.821756488E1
6.463318390E-1,1.815015793E1,2.334796667E0,-2.323430777E0,1.844662134E1
6.487099640E-1,1.824168396E1,2.443071842E0,-2.639283419E0,1.859283332E1
6.510880890E-1,1.828834343E1,2.583650351E0,-2.908475876E0,1.869753958E1
6.534662140E-1,1.837209320E1,2.788236618E0,-3.177070379E0,1.885210461E1
6.558443390E-1,1.846601105E1,2.910270452E0,-3.437289715E0,1.900731961E1
6.582224640E-1,1.853719711E1,3.037688255E0,-3.719642878E0,1.914917674E1
6.606005890E-1,1.842293930E1,3.103491068E0,-3.886542082E0,1.908249351E1
6.629787140E-1,1.825424576E1,3.064607620E0,-4.022933006E0,1.894183988E1
6.653568390E-1,1.806282043E1,2.946761131E0,-4.124628067E0,1.876063538E1
6.677349640E-1,1.790668869E1,2.773281336E0,-4.197608948E0,1.860001371E1
6.701130890E-1,1.773081589E1,2.533401012E0,-4.180261135E0,1.839224119E1
6.724912140E-1,1.754118538E1,2.247458696E0,-4.106681824E0,1.815513951E1
6.748693390E-1,1.731326866E1,1.953739643E0,-3.914657831E0,1.785751708E1
6.772474640E-1,1.697468376E1,1.637288928E0,-3.865604877E0,1.748609462E1
6.796255890E-1,1.658106422E1,1.229910851E0,-4.040879250E0,1.711061298E1
6.820037140E-1,1.614616966E1,8.673982024E-1,-4.097110748E0,1.668045236E1
6.843818390E-1,1.574596977E1,5.264210105E-1,-3.644867182E0,1.617089175E1
6.867599640E-1,1.534337711E1,2.117647976E-1,-3.247060299E0,1.568462515E1
6.891380890E-1,1.495693588E1,-5.623133108E-2,-3.009572744E0,1.525682212E1
6.915162140E-1,1.454716492E1,-3.278166950E-1,-2.732005358E0,1.480511142E1
6.938943390E-1,1.422473240E1,-5.700899959E-1,-2.358724833E0,1.443023206E1
6.962724640E-1,1.390828133E1,-8.033902049E-1,-1.935793519E0,1.406531272E1
6.986505890E-1,1.362473202E1,-1.024726272E0,-1.533201098E0,1.374896695E1
7.010287140E-1,1.338724422E1,-1.220339537E0,-1.386640668E0,1.351407817E1
7.034068390E-1,1.314138222E1,-1.472184181E0,-1.444068432E0,1.330220232E1
7.057849640E-1,1.291226959E1,-1.617548108E0,-1.638485312E0,1.311593695E1
7.081630890E-1,1.265025520E1,-1.783849239E0,-2.076970100E0,1.294314025E1
7.105412140E-1,1.244507027E1,-1.844866276E0,-2.577069998E0,1.284229712E1
7.129193390E-1,1.221476173E1,-1.838884234E0,-2.900100946E0,1.268828140E1
7.152974640E-1,1.212203979E1,-1.777867198E0,-3.111267567E0,1.264059518E1
7.176755890E-1,1.208614731E1,-1.727019787E0,-3.379862070E0,1.266811042E1
7.200537140E-1,1.206700420E1,-1.649851203E0,-3.611367464E0,1.270340798E1
7.224318390E-1,1.198325539E1,-1.615155339E0,-3.735196114E0,1.265538725E1
7.248099640E-1,1.180798149E1,-1.637887120E0,-3.869792461E0,1.253341114E1
7.271880890E-1,1.163031483E1,-1.669592023E0,-4.034298897E0,1.242285507E1
7.295662140E-1,1.139581776E1,-1.779063582E0,-4.201796532E0,1.227537469E1
7.319443390E-1,1.115593719E1,-1.866999865E0,-4.287340164E0,1.209635932E1
7.343224640E-1,1.083230782E1,-2.192423820E0,-4.307080746E0,1.186155805E1
7.367005890E-1,9.784850121E0,-3.450450182E0,-5.063810825E0,1.154517555E1
7.390787140E-1,8.178668022E0,-5.303691387E0,-6.229115486E0,1.156813004E1
7.414568390E-1,6.141777515E0,-7.629515171E0,-7.687541008E0,1.245107303E1
7.438349640E-1,4.137190342E0,-9.604789734E0,-8.559724808E0,1.351433382E1
7.462130890E-1,2.566302299E0,-1.094357395E1,-8.593822479E0,1.414925804E1
7.485912140E-1,1.319641709E0,-1.187677479E1,-8.288737297E0,1.454312207E1
7.509693390E-1,3.816552162E-1,-1.251027489E1,-7.848458290E0,1.477331838E1
7.533474640E-1,-4.193421602E-1,-1.307139206E1,-7.473981380E0,1.506311840E1
7.557255890E-1,-1.162313581E0,-1.366481209E1,-7.104290485E0,1.544503174E1
7.581037140E-1,-1.604985833E0,-1.406501102E1,-6.677769661E0,1.565225614E1
7.604818390E-1,-2.038684845E0,-1.430489159E1,-6.066403389E0,1.567122871E1
7.628599640E-1,-2.418545485E0,-1.458245945E1,-5.348556995E0,1.571955940E1
7.652380890E-1,-2.561516523E0,-1.472602844E1,-4.486542225E0,1.560597135E1
7.676162140E-1,-2.563909531E0,-1.472483253E1,-3.878167391E0,1.544132467E1
7.699943390E-1,-2.482553482E0,-1.458485222E1,-3.405584812E0,1.518153464E1
7.723724640E-1,-2.305484533E0,-1.434915924E1,-3.086741209E0,1.485737531E1
7.747505890E-1,-2.093121529E0,-1.392802238E1,-2.946761131E0,1.438938381E1
7.771287140E-1,-1.803590059E0,-1.346919823E1,-2.868994236E0,1.388896562E1
7.795068390E-1,-1.456032634E0,-1.288654613E1,-2.962912560E0,1.330270473E1
7.818849640E-1,-1.067797065E0,-1.225783253E1,-2.931805849E0,1.264872066E1
7.842630890E-1,-4.845465720E-1,-1.142931747E1,-3.088535786E0,1.184918295E1
7.866412140E-1,7.058826834E-2,-1.070967579E1,-2.982055187E0,1.111731943E1
7.890193390E-1,6.143572330E-1,-9.982855797E0,-3.077768087E0,1.046458318E1
7.913974640E-1,1.130010486E0,-9.195617676E0,-3.373879910E0,9.859988528E0
7.937755890E-1,1.781456470E0,-8.332406998E0,-3.546761274E0,9.229415424E0
7.961537140E-1,2.435893536E0,-7.542775154E0,-3.658625841E0,8.729981523E0
7.985318390E-1,3.211766243E0,-6.780661106E0,-3.588635683E0,8.316917308E0
8.009099640E-1,3.905086517E0,-6.211169243E0,-3.654438496E0,8.196538586E0
8.032880890E-1,4.766502857E0,-5.534000397E0,-3.865604877E0,8.263631826E0
8.056662140E-1,5.493322372E0,-4.997410297E0,-3.776472330E0,8.331413063E0
8.080443390E-1,6.206982136E0,-4.309473515E0,-3.845266104E0,8.478458623E0
8.104224640E-1,7.110870838E0,-3.690330744E0,-3.625724554E0,8.793685440E0
8.128005890E-1,8.041678429E0,-3.049652576E0,-3.570689678E0,9.312292820E0
8.151787140E-1,9.033503532E0,-2.361117840E0,-3.695714474E0,1.004178117E1
8.175568390E-1,9.891330719E0,-1.686939955E0,-3.860221148E0,1.075106958E1
8.199349640E-1,1.068215847E1,-9.900303483E-1,-3.857230186E0,1.140030238E1
8.223130890E-1,1.141795158E1,-3.499503136E-1,-3.751347780E0,1.202350588E1
8.246912140E-1,1.202991581E1,1.645065546E-1,-3.425923824E0,1.250931217E1
8.270693390E-1,1.271007538E1,6.352944374E-1,-3.104089260E0,1.309904520E1
8.294474640E-1,1.339143181E1,1.119840980E0,-2.636890650E0,1.369443982E1
8.318255890E-1,1.396810246E1,1.472782373E0,-1.858026743E0,1.416789460E1
8.342037140E-1,6.741777658E-1,-1.041775131E1,-2.338984251E0,1.069835994E1
8.365818390E-1,1.567597985E0,-9.411270142E0,-2.215753794E0,9.794842214E0
8.389599640E-1,2.522633314E0,-8.357232094E0,-2.154437780E0,8.991585470E0
8.413380890E-1,3.521935940E0,-7.277471066E0,-2.151446581E0,8.366262025E0
8.437162140E-1,4.548456669E0,-6.193522453E0,-2.200200319E0,7.993063236E0
8.460943390E-1,5.585745335E0,-5.126323223E0,-2.291725874E0,7.920337632E0
8.484724640E-1,6.618547440E0,-4.095914364E0,-2.414956331E0,8.149460029E0
8.508505890E-1,7.632206917E0,-3.120838881E0,-2.556432009E0,8.632818911E0
8.532287140E-1,8.614161491E0,-2.217548370E0,-2.702095032E0,9.296376527E0
8.556068910E-1,9.553643227E0,-1.399502158E0,-2.837289333E0,1.006384201E1
8.579852240E-1,1.044167995E1,-6.777670383E-1,-2.946761131E0,1.087066923E1
8.603635570E-1,1.127169037E1,-6.071787328E-2,-3.016751051E0,1.166856792E1
8.627418910E-1,1.203858948E1,4.471587241E-1,-3.034996510E0,1.242331644E1
8.651201720E-1,1.273938751E1,8.434699774E-1,-2.990130901E0,1.311275404E1
8.674982970E-1,1.337288761E1,1.127916813E0,-2.873480797E0,1.372454776E1
8.698764220E-1,1.393819237E1,1.303191066E0,-2.679662228E0,1.425314362E1
8.722545470E-1,1.443679619E1,1.373779297E0,-2.404786825E0,1.470004603E1
8.746326720E-1,1.486959839E1,1.345065475E0,-2.049751759E0,1.507035632E1
8.770107970E-1,1.523839188E1,1.224527001E0,-1.617847204E0,1.537288141E1
8.793889220E-1,1.554527187E1,1.019641519E0,-1.115354419E0,1.561855185E1
8.817670470E-1,1.579173183E1,7.387840152E-1,-5.512465239E-1,1.581861147E1
8.841451720E-1,1.597897053E1,3.900300860E-1,6.251249462E-2,1.598385218E1
8.865232970E-1,1.610818291E1,-1.884347759E-2,7.124629617E-1,1.612394229E1
8.889014220E-1,1.617966843E1,-4.803591371E-1,1.384247899E0,1.624587817E1
8.912795470E-1,1.619282913E1,-9.885348678E-1,2.062314034E0,1.635353343E1
8.936576720E-1,1.614766502E1,-1.537089467E0,2.732005358E0,1.644912104E1
8.960357970E-1,1.604357719E1,-2.120639086E0,3.378665686E0,1.653205556E1
8.984139220E-1,1.587966824E1,-2.734996319E0,3.989134550E0,1.659991755E1
9.007920470E-1,1.565564060E1,-3.375375509E0,4.553242207E0,1.665005277E1
9.031701720E-1,1.537089443E1,-4.037589073E0,5.062315464E0,1.667913544E1
9.055482970E-1,1.502662754E1,-4.717449665E0,5.510670662E0,1.668596289E1
9.079264220E-1,1.462373543E1,-5.410770416E0,5.895915031E0,1.667008963E1
9.103045470E-1,1.416491222E1,-6.112166405E0,6.218348026E0,1.663343526E1
9.126826720E-1,1.365344620E1,-6.815656185E0,6.481259346E0,1.657939942E1
9.150607970E-1,1.309531975E1,-7.514061451E0,6.690930367E0,1.651414751E1
9.174389220E-1,1.249651623E1,-8.199904442E0,6.854838848E0,1.644354482E1
9.198170470E-1,1.186511040E1,-8.863912582E0,6.982256413E0,1.637381127E1
9.221951720E-1,1.121067333E1,-9.496215820E0,7.083652496E0,1.631059300E1
9.245732970E-1,1.054397297E1,-1.008544827E1,7.169494629E0,1.625709955E1
9.269514220E-1,9.876076698E0,-1.062084198E1,7.249654293E0,1.621408840E1
9.293295470E-1,9.219246864E0,-1.109013462E1,7.331907749E0,1.617845697E1
9.317076720E-1,8.585447311E0,-1.148195934E1,7.420741081E0,1.614350315E1
9.340857970E-1,7.987541199E0,-1.178524971E1,7.520342350E0,1.610119481E1
9.364639220E-1,7.437490940E0,-1.198983574E1,7.629814148E0,1.604015263E1
9.388420470E-1,6.946064949E0,-1.208734322E1,7.744669437E0,1.594777693E1
9.412201720E-1,6.524031162E0,-1.207029438E1,7.858627796E0,1.581180002E1
9.435982970E-1,6.180062771E0,-1.193420315E1,7.961818218E0,1.562078519E1
9.459764220E-1,5.921039581E0,-1.167697430E1,8.040781021E0,1.536439383E1
9.483545470E-1,5.751747608E0,-1.129920769E1,8.080561638E0,1.503496496E1
9.507326720E-1,5.674878120E0,-1.080449200E1,8.064709663E0,1.462808364E1
9.531107970E-1,5.690730572E0,-1.020030403E1,7.975576878E0,1.414356544E1
9.554889220E-1,5.796313763E0,-9.495617867E0,7.796414375E0,1.358484777E1
9.578670470E-1,5.987739563E0,-8.703892708E0,7.512565613E0,1.296338750E1
9.602451720E-1,6.257530212E0,-7.840083599E0,7.110870838E0,1.229585618E1
9.626232970E-1,6.596114635E0,-6.921538830E0,6.582355976E0,1.160792136E1
9.650014220E-1,6.992425919E0,-5.967400551E0,5.921338558E0,1.093463030E1
9.673795470E-1,7.434200764E0,-4.998008251E0,5.128417015E0,1.032221336E1
9.697576720E-1,7.907082558E0,-4.034597874E0,4.208077908E0,9.823841115E0
9.721357970E-1,8.396115303E0,-3.097808123E0,3.171088219E0,9.494575706E0
9.745139220E-1,8.886942863E0,-2.208276272E0,2.033001900E0,9.380156410E0
9.768920470E-1,9.363713264E0,-1.385743380E0,8.144569993E-1,9.500671082E0
9.792701720E-1,9.812067986E0,-6.478567123E-1,-4.600201547E-1,9.844186864E0
9.816482970E-1,1.021884823E1,-9.571290575E-3,-1.761715651E0,1.036959945E1
9.840264220E-1,1.057268715E1,5.159524083E-1,-3.059522867E0,1.101855710E1
9.864045470E-1,1.086251736E1,9.194421172E-1,-4.321437836E0,1.172665690E1
9.887826720E-1,1.108175945E1,1.195214868E0,-5.515157223E0,1.243587111E1
9.911607970E-1,1.122473145E1,1.339980721E0,-6.608976364E0,1.309460625E1
9.935389220E-1,1.128843975E1,1.354337573E0,-7.574181080E0,1.366130745E1
9.959170470E-1,1.127288628E1,1.242772222E0,-8.385348320E0,1.410448561E1
9.982951720E-1,1.117926693E1,1.011565804E0,-9.022735596E0,1.440170240E1
1.000673297E0,1.101266670E1,6.714858413E-1,-9.471091270E0,1.454067712E1
1.003051422E0,1.077876854E1,2.338984162E-1,-9.720542908E0,1.451638778E1
1.005429547E0,1.048624611E1,-2.874378264E-1,-9.770194054E0,1.433529455E1
1.007807672E0,1.014437199E1,-8.760721684E-1,-9.622437477E0,1.400953563E1
1.010185797E0,9.763613701E0,-1.515853167E0,-9.288040161E0,1.356073941E1
1.012563922E0,9.354440689E0,-2.190330029E0,-8.782257080E0,1.301657196E1
1.014942047E0,8.928518295E0,-2.882154942E0,-8.126624107E0,1.241238395E1
1.017320172E0,8.496015549E0,-3.575176239E0,-7.346563816E0,1.178711862E1
1.019698297E0,8.067700386E0,-4.254139423E0,-6.471089840E0,1.118304500E1
1.022076422E0,7.651947498E0,-4.905286312E0,-5.532505035E0,1.064061776E1
1.024454547E0,7.257730007E0,-5.516353607E0,-4.563711166E0,1.019471734E1
1.026832672E0,6.891329288E0,-6.077171326E0,-3.597608805E0,9.867381608E0
1.029210797E0,6.557829380E0,-6.579364777E0,-2.666501760E0,9.664543377E0
1.031588922E0,6.260820389E0,-7.016952515E0,-1.800898194E0,9.574900983E0
1.033967047E0,6.002694607E0,-7.386643410E0,-1.028315544E0,9.573519534E0
1.036345172E0,5.784349442E0,-7.686344624E0,-3.723830283E-1,9.626902994E0
1.038723297E0,5.604887962E0,-7.916952610E0,1.468594968E-1,9.701261537E0
1.041101422E0,5.462814331E0,-8.081459045E0,5.150550604E-1,9.768193407E0
1.043479547E0,5.354837894E0,-8.183453560E0,7.226324677E-1,9.806395807E0
1.045857672E0,5.277669430E0,-8.229216576E0,7.651050687E-1,9.806079024E0
1.048235797E0,5.227420330E0,-8.225626945E0,6.439684033E-1,9.767372075E0
1.050613922E0,5.198706150E0,-8.180761337E0,3.646063507E-1,9.699708216E0
1.052992047E0,5.187340260E0,-8.103293419E0,-6.131608039E-2,9.621622673E0
1.055370172E0,5.188836098E0,-8.002197266E0,-6.197410822E-1,9.557366799E0
1.057748297E0,5.198108196E0,-7.886145115E0,-1.290030479E0,9.532879535E0
1.060126422E0,5.211866856E0,-7.764709473E0,-2.049153566E0,9.573572983E0
1.062504547E0,5.226821899E0,-7.645367622E0,-2.874378204E0,9.697080144E0
1.064882672E0,5.240281582E0,-7.535596848E0,-3.736392498E0,9.909914218E0
1.067260797E0,5.250152111E0,-7.442874908E0,-4.610371113E0,1.020862409E1
1.069638922E0,5.256732464E0,-7.372286797E0,-5.469992638E0,1.057850028E1
1.072017047E0,5.259723186E0,-7.327720165E0,-6.289235115E0,1.099611973E1
1.074395172E0,5.259424210E0,-7.312765121E0,-7.045068264E0,1.143551764E1
1.076773297E0,5.258526802E0,-7.328916550E0,-7.716553688E0,1.187056539E1
1.079151422E0,5.259125233E0,-7.375875950E0,-8.286046028E0,1.227682789E1
1.081529547E0,5.263611794E0,-7.452745438E0,-8.739485741E0,1.263438304E1
1.083907672E0,5.274977684E0,-7.556832790E0,-9.068498611E0,1.292937657E1
1.086285797E0,5.296812057E0,-7.684250832E0,-9.268299103E0,1.315314780E1
1.088663922E0,5.331508160E0,-7.830811024E0,-9.338887215E0,1.330268375E1
1.091042047E0,5.381458282E0,-7.990232944E0,-9.285347939E0,1.337989544E1
1.093420172E0,5.448756218E0,-8.156833649E0,-9.116953850E0,1.339185301E1
1.095798297E0,5.534299850E0,-8.324031830E0,-8.846264839E0,1.334819772E1
1.098176422E0,5.638088226E0,-8.485248566E0,-8.489435196E0,1.326114595E1
1.100554547E0,5.759823322E0,-8.634500504E0,-8.064709663E0,1.314418904E1
1.102932672E0,5.897410393E0,-8.765208244E0,-7.593921661E0,1.301060994E1
1.105310797E0,6.047859192E0,-8.872885704E0,-7.097710133E0,1.287175942E1
1.107688922E0,6.206982136E0,-8.952746391E0,-6.597609997E0,1.273604149E1
1.110067047E0,6.369693756E0,-9.001798630E0,-6.114858150E0,1.260939599E1
1.112445172E0,6.529714108E0,-9.018548965E0,-5.668895721E0,1.249430952E1
1.114823297E0,6.680461884E0,-9.002098083E0,-5.276174068E0,1.238968739E1
1.117201422E0,6.814758778E0,-8.953642845E0,-4.950450897E0,1.229290940E1
1.119579547E0,6.925127983E0,-8.875576973E0,-4.701298237E0,1.219981431E1
1.121957672E0,7.003492832E0,-8.771489143E0,-4.534399033E0,1.210573039E1
1.124335797E0,7.043572426E0,-8.646464348E0,-4.451547623E0,1.200789467E1
1.126713922E0,7.038188934E0,-8.506185532E0,-4.450351238E0,1.190365162E1
1.129092047E0,6.981957436E0,-8.357830048E0,-4.523930073E0,1.179266705E1
1.131470172E0,6.870691299E0,-8.208578110E0,-4.663012981E0,1.167607997E1
1.133848297E0,6.701398849E0,-8.066802979E0,-4.854438782E0,1.155628109E1
1.136226422E0,6.472884178E0,-7.940581799E0,-5.082953453E0,1.143623560E1
1.138604547E0,6.185446739E0,-7.838587761E0,-5.332106113E0,1.131965393E1
1.140982672E0,5.841179371E0,-7.768897057E0,-5.583950520E0,1.120962271E1
1.143360797E0,5.444868088E0,-7.739285946E0,-5.821139336E0,1.110985142E1
1.145738922E0,5.001896858E0,-7.756334782E0,-6.026323795E0,1.102253509E1
1.148117047E0,4.519742966E0,-7.826324463E0,-6.184848309E0,1.095133689E1
1.150495172E0,4.007379532E0,-7.953443527E0,-6.283253193E0,1.089934059E1
1.152873297E0,3.475275755E0,-8.141280174E0,-6.310471535E0,1.087106414E1
1.155251422E0,2.934198856E0,-8.391031265E0,-6.259922981E0,1.087223824E1
1.157629547E0,2.395514488E0,-8.702396393E0,-6.125925064E0,1.090858151E1
1.160007672E0,1.870888233E0,-9.072686195E0,-5.907878876E0,1.098712385E1
1.162385797E0,1.371386528E0,-9.497711182E0,-5.606682777E0,1.111405014E1
1.164763922E0,9.074779749E-1,-9.971191406E0,-5.227420330E0,1.129487041E1
1.167142047E0,4.899304509E-1,-1.048385334E1,-4.776672363E0,1.153116696E1
1.169520172E0,1.262213886E-1,-1.102552891E1,-4.263112545E0,1.182168973E1
1.171898297E0,-1.758724600E-1,-1.158425236E1,-3.698107481E0,1.216148974E1
1.174276422E0,-4.112663865E-1,-1.214656639E1,-3.092723370E0,1.254085934E1
1.176654547E0,-5.754738450E-1,-1.269811153E1,-2.459223509E0,1.294685240E1
1.179032672E0,-6.669993401E-1,-1.322393417E1,-1.809572101E0,1.336382708E1
1.181410797E0,-6.855437160E-1,-1.370848083E1,-1.154836059E0,1.377410844E1
1.183788922E0,-6.329016089E-1,-1.413739395E1,-5.063810945E-1,1.416061065E1
1.186167047E0,-5.117649436E-1,-1.449721527E1,1.265204996E-1,1.450679708E1
1.188545172E0,-3.275175989E-1,-1.477538109E1,7.354938388E-1,1.479730061E1
1.190923297E0,-8.614161611E-2,-1.496172142E1,1.313360572E0,1.501950213E1
1.193301422E0,2.054836452E-1,-1.504816246E1,1.855334878E0,1.516349842E1
1.195679547E0,5.398806334E-1,-1.502902031E1,2.356033087E0,1.522214881E1
1.198057672E0,9.077770710E-1,-1.490220070E1,2.813361168E0,1.519258523E1
1.200435797E0,1.301396370E0,-1.466800308E1,3.224926710E0,1.507461771E1
1.202813922E0,1.711466432E0,-1.433001614E1,3.589233875E0,1.487148545E1
1.205192047E0,2.129612207E0,-1.389452267E1,3.905385733E0,1.458920992E1
1.207570172E0,2.547458887E0,-1.337079430E1,4.173082829E0,1.423665365E1
1.209948297E0,2.957827806E0,-1.277049446E1,4.391726971E0,1.382467142E1
1.212326422E0,3.353540897E0,-1.210738373E1,4.561018944E0,1.336554792E1
1.214704547E0,3.728914976E0,-1.139641571E1,4.680361271E0,1.287201925E1
1.217082672E0,4.078267097E0,-1.065404320E1,4.748855591E0,1.235688182E1
1.219460797E0,4.397708893E0,-9.897911072E0,4.764409065E0,1.183250104E1
1.221838922E0,4.684249401E0,-9.144171715E0,4.727320194E0,1.130953691E1
1.224217047E0,4.935196877E0,-8.409873962E0,4.634897232E0,1.079650039E1
1.226595172E0,5.149354458E0,-7.709674358E0,4.486243248E0,1.029957808E1
1.228973297E0,5.326124191E0,-7.057331085E0,4.281357765E0,9.823621800E0
1.231351422E0,5.465506077E0,-6.464210510E0,4.019642830E0,9.370981948E0
1.233729547E0,5.568397522E0,-5.940182209E0,3.701995850E0,8.944137125E0
1.236107672E0,5.636293888E0,-5.491229057E0,3.330210924E0,8.544689003E0
1.238485797E0,5.671288967E0,-5.121836662E0,2.907578707E0,8.176230383E0
1.240863922E0,5.675177097E0,-4.833800793E0,2.438585281E0,7.843466285E0
1.243242047E0,5.650949955E0,-4.625924587E0,1.928315997E0,7.553199075E0
1.245620172E0,5.601896763E0,-4.494917393E0,1.384247899E0,7.314483711E0
1.247998297E0,5.531308651E0,-4.435395718E0,8.150551915E-1,7.136695701E0
1.250376422E0,5.442175865E0,-4.440181732E0,2.297109663E-1,7.027464627E0
1.252754547E0,5.339284420E0,-4.500600338E0,-3.604189157E-1,6.992371795E0
1.255132672E0,5.225326538E0,-4.607379913E0,-9.445667267E-1,7.030234235E0
1.257510797E0,5.104787827E0,-4.750650406E0,-1.511067510E0,7.135184865E0
1.259888922E0,4.980959415E0,-4.920839787E0,-2.048256159E0,7.295202135E0
1.262267047E0,4.857728958E0,-5.108377457E0,-2.544766903E0,7.494590680E0
1.264645172E0,4.738686085E0,-5.305186749E0,-2.990430117E0,7.716399713E0
1.267023297E0,4.627718925E0,-5.503791332E0,-3.375973701E0,7.943846670E0
1.269401422E0,4.528716087E0,-5.698207855E0,-3.693919897E0,8.162345641E0
1.271779547E0,4.444368839E0,-5.884848118E0,-3.937688828E0,8.359978771E0
1.274157672E0,4.378267288E0,-6.061019897E0,-4.103391647E0,8.528951264E0
1.276535797E0,4.333401680E0,-6.225825310E0,-4.189234257E0,8.665388310E0
1.278913922E0,4.312464714E0,-6.380760670E0,-4.194917202E0,8.769765616E0
1.281292047E0,4.318147659E0,-6.529115677E0,-4.122833252E0,8.847231474E0
1.283670172E0,4.352544308E0,-6.674479485E0,-3.977469444E0,8.905817285E0
1.286048297E0,4.418646336E0,-6.822535515E0,-3.764508247E0,8.957842856E0
1.288426422E0,4.517350197E0,-6.979564667E0,-3.491726398E0,9.017368185E0
1.290804547E0,4.651348114E0,-7.152445793E0,-3.168396235E0,9.101167771E0
1.293182672E0,4.820341110E0,-7.348657608E0,-2.803191662E0,9.224767778E0
1.295560797E0,5.024927616E0,-7.575676441E0,-2.407478571E0,9.404080187E0
1.297938922E0,5.265107155E0,-7.840083599E0,-1.989931107E0,9.651325816E0
1.300317047E0,5.539085388E0,-8.148458481E0,-1.559522152E0,9.975517625E0
1.302695172E0,5.844469070E0,-8.507381439E0,-1.124626637E0,1.038258844E1
1.305073297E0,6.177968979E0,-8.923434258E0,-6.924230456E-1,1.087540479E1
1.307451422E0,6.536293983E0,-9.397511482E0,-2.694916427E-1,1.145028326E1
1.309829547E0,6.914061069E0,-9.932906151E0,1.405783296E-1,1.210316600E1
1.312207672E0,7.304689407E0,-1.053141022E1,5.347958803E-1,1.282790299E1
1.314585797E0,7.700701237E0,-1.119123173E1,9.116654396E-1,1.361527087E1
1.316963922E0,8.094619751E0,-1.190967655E1,1.271785259E0,1.445616485E1
1.319342047E0,8.476573944E0,-1.268405342E1,1.616949916E0,1.534118783E1
1.321720172E0,8.836693764E0,-1.350957775E1,1.951346874E0,1.626049207E1
1.324098297E0,9.164510727E0,-1.437847137E1,2.277369022E0,1.720218316E1
1.326476422E0,9.449256897E0,-1.528265953E1,2.599502802E0,1.815504208E1
1.328854547E0,9.680462837E0,-1.621197128E1,2.921636343E0,1.910694462E1
1.331232672E0,9.847960472E0,-1.715324783E1,3.247359514E0,2.004399113E1
1.333610797E0,9.941579819E0,-1.809452438E1,3.578466177E0,2.095357349E1
1.335988922E0,9.954142570E0,-1.902054787E1,3.917349815E0,2.182227818E1
1.338367047E0,9.878469467E0,-1.991546249E1,4.264608383E0,2.263618099E1
1.340745172E0,9.710074425E0,-2.076342010E1,4.618446827E0,2.338236966E1
1.343123297E0,9.445966721E0,-2.154766655E1,4.976771832E0,2.404779572E1
1.345501422E0,9.086744308E0,-2.225085831E1,5.335396290E0,2.461983085E1
1.347879547E0,8.634799957E0,-2.285684013E1,5.689534187E0,2.508716226E1
1.350257672E0,8.095217705E0,-2.335035896E1,6.031707764E0,2.543920816E1
1.352635797E0,7.476075172E0,-2.371735954E1,6.355037689E0,2.566693101E1
1.355013922E0,6.787839413E0,-2.394587326E1,6.651149750E0,2.576271343E1
1.357392047E0,6.043073654E0,-2.402573395E1,6.911967278E0,2.572022400E1
1.359770172E0,5.256732464E0,-2.395065880E1,7.129714012E0,2.553625100E1
1.362148297E0,4.444668293E0,-2.371586418E1,7.297211647E0,2.520806593E1
1.364526422E0,3.623929977E0,-2.332194519E1,7.408178806E0,2.473716049E1
1.366904547E0,2.812164783E0,-2.277189445E1,7.458128929E0,2.412656492E1
1.369282672E0,2.025823355E0,-2.207349014E1,7.443173885E0,2.338255257E1
1.371660797E0,1.281356573E0,-2.123779678E1,7.362715244E0,2.251433905E1
1.374038922E0,5.937191248E-1,-2.028036880E1,7.216753006E0,2.153433039E1
1.376417047E0,-2.512463741E-2,-1.921915054E1,7.008278370E0,2.045708544E1
1.378795120E0,-5.641079545E-1,-1.807598114E1,6.741478920E0,1.930043652E1
1.381173036E0,-1.016052365E0,-1.687448502E1,6.422336102E0,1.808388808E1
1.383550953E0,-1.376471281E0,-1.564038658E1,6.058028698E0,1.682902485E1
1.385928870E0,-1.643869162E0,-1.440090370E1,5.656931877E0,1.555921629E1
1.388306786E0,-1.820339799E0,-1.318265820E1,5.228616714E0,1.429806095E1
1.390685328E0,-1.910369754E0,-1.201196957E1,4.781756878E0,1.306912867E1
1.393063870E0,-1.921735644E0,-1.091396332E1,4.326223373E0,1.189638062E1
1.395442411E0,-1.863709688E0,-9.910472870E0,3.871287823E0,1.080174781E1
1.397820849E0,-1.748854280E0,-9.020642281E0,3.424727440E0,9.806081607E0
1.400198974E0,-1.589731574E0,-8.259724617E0,2.994019270E0,8.928294832E0
1.402577099E0,-1.400399446E0,-7.638488293E0,2.584846735E0,8.184684151E0
1.404955224E0,-1.195214868E0,-7.162316322E0,2.201695919E0,7.587804597E0
1.407333349E0,-9.873384237E-1,-6.832107067E0,1.847259045E0,7.145970201E0
1.409711474E0,-7.905287743E-1,-6.643970966E0,1.523031592E0,6.861990322E0
1.412089599E0,-6.152545214E-1,-6.589534283E0,1.228415370E0,6.731233506E0
1.414467724E0,-4.710869491E-1,-6.655336857E0,9.616156220E-1,6.740929921E0
1.416845849E0,-3.652045429E-1,-6.824928284E0,7.205387354E-1,6.872568407E0
1.419223974E0,-3.014956415E-1,-7.077670097E0,5.015954375E-1,7.101824527E0
1.421602099E0,-2.820539773E-1,-7.392027378E0,3.011965454E-1,7.403535815E0
1.423980224E0,-3.062812984E-1,-7.744968891E0,1.148554832E-1,7.751873525E0
1.426358349E0,-3.699901998E-1,-8.112266541E0,-6.071787328E-2,8.120926538E0
1.428736474E0,-4.677968323E-1,-8.471489906E0,-2.288136631E-1,8.487480828E0
1.431114599E0,-5.925226808E-1,-8.800801277E0,-3.927220106E-1,8.829462998E0
1.433492724E0,-7.345965505E-1,-9.081061363E0,-5.542375445E-1,9.127567410E0
1.435870849E0,-8.841479421E-1,-9.295816422E0,-7.136593461E-1,9.365000277E0
1.438248974E0,-1.030110121E0,-9.431609154E0,-8.712865710E-1,9.527618715E0
1.440627099E0,-1.161416292E0,-9.479166985E0,-1.025324464E0,9.604935439E0
1.443005224E0,-1.267896891E0,-9.433403969E0,-1.172782183E0,9.590208080E0
1.445383349E0,-1.339681625E0,-9.292825699E0,-1.310967684E0,9.479978512E0
1.447761474E0,-1.369292736E0,-9.060123444E0,-1.434497118E0,9.274620283E0
1.450139599E0,-1.350449324E0,-8.740981102E0,-1.539482236E0,8.977665039E0
1.452517724E0,-1.278365493E0,-8.344968796E0,-1.620239973E0,8.596388783E0
1.454895849E0,-1.151246786E0,-7.883752346E0,-1.671984792E0,8.140912317E0
1.457273974E0,-9.687940478E-1,-7.371089935E0,-1.689631939E0,7.624066161E0
1.459652099E0,-7.328019142E-1,-6.822834492E0,-1.669891119E0,7.062337113E0
1.462030224E0,-4.477569461E-1,-6.254240036E0,-1.608874083E0,6.473367016E0
1.464408349E0,-1.187438220E-1,-5.682056427E0,-1.504786372E0,5.879136617E0
1.466786474E0,2.467598319E-1,-5.121836662E0,-1.356730461E0,5.304226499E0
1.469164599E0,6.412764788E-1,-4.587639332E0,-1.165603757E0,4.776641318E0
1.471542724E0,1.056730270E0,-4.092923164E0,-9.337990284E-1,4.329050649E0
1.473920849E0,1.484447360E0,-3.648157120E0,-6.646065116E-1,3.994287940E0
1.476298974E0,1.916351795E0,-3.262015581E0,-3.640081584E-1,3.800743584E0
1.478677099E0,2.346162558E0,-2.941078186E0,-3.828516230E-2,3.762430783E0
1.481055224E0,2.767000198E0,-2.688635349E0,3.047857881E-1,3.870134948E0
1.483433349E0,3.175275564E0,-2.506481647E0,6.568298340E-1,4.098322900E0
1.485811474E0,3.567399502E0,-2.393719912E0,1.008574724E0,4.412874029E0
1.488189599E0,3.942474365E0,-2.347059965E0,1.350150228E0,4.782750280E0
1.490567724E0,4.301098824E0,-2.361716032E0,1.672582984E0,5.184080202E0
1.492945849E0,4.645366192E0,-2.431705952E0,1.967498422E0,5.600327752E0
1.495323974E0,4.978267670E0,-2.549552441E0,2.225923300E0,6.019809065E0
1.497702099E0,5.304887772E0,-2.706581593E0,2.441277266E0,6.436400615E0
1.500080224E0,5.629115105E0,-2.895315409E0,2.607877493E0,6.846226201E0
1.502458349E0,5.957231045E0,-3.106781006E0,2.721536636E0,7.248962105E0
1.504836474E0,6.293422699E0,-3.333201885E0,2.779861689E0,7.644935257E0
1.507214599E0,6.641279221E0,-3.567100286E0,2.781955481E0,8.035550413E0
1.509592724E0,7.003791809E0,-3.802494287E0,2.729313374E0,8.423847933E0
1.511970849E0,7.382755280E0,-4.033102512E0,2.624328136E0,8.812382740E0
1.514348974E0,7.776374340E0,-4.255635262E0,2.472084999E0,9.202914408E0
1.516727099E0,8.183154106E0,-4.466203690E0,2.278266191E0,9.596951774E0
1.519105224E0,8.598010063E0,-4.663012981E0,2.050050735E0,9.993606713E0
1.521483349E0,9.014061928E0,-4.845166683E0,1.796112537E0,1.039013825E1
1.523861474E0,9.422935486E0,-5.012963295E0,1.525125384E0,1.078181439E1
1.526239599E0,9.814460754E0,-5.167001247E0,1.246660590E0,1.116134868E1
1.528617724E0,1.017727280E1,-5.309374332E0,9.699904919E-1,1.151986193E1
1.530995849E0,1.050000477E1,-5.441577911E0,7.046862841E-1,1.184725509E1
1.533373974E0,1.077069283E1,-5.566602707E0,4.591228366E-1,1.213283493E1
1.535752099E0,1.097827053E1,-5.686244011E0,2.416750938E-1,1.236584820E1
1.538130224E0,1.111256790E1,-5.803193092E0,5.862415582E-2,1.253673212E1
1.540508349E0,1.116461182E1,-5.919544220E0,-8.404789865E-2,1.263711299E1
1.542886474E0,1.112871933E1,-6.037091732E0,-1.821536273E-1,1.266207133E1
1.545264599E0,1.100130081E1,-6.156732559E0,-2.335993052E-1,1.260906594E1
1.547642724E0,1.078116131E1,-6.279963017E0,-2.371885478E-1,1.247908783E1
1.550020849E0,1.047099209E1,-6.406483650E0,-1.938186288E-1,1.227690001E1
1.552398974E0,1.007677460E1,-6.536293983E0,-1.052841991E-1,1.201147826E1
1.554777099E0,9.607182503E0,-6.668796539E0,2.422732860E-2,1.169493009E1
1.557155224E0,9.074481010E0,-6.802794933E0,1.899302900E-1,1.134285229E1
1.559533349E0,8.493024826E0,-6.937091827E0,3.861417472E-1,1.097286741E1
1.561911474E0,7.879564762E0,-7.070491791E0,6.059823632E-1,1.060408457E1
1.564289599E0,7.252944469E0,-7.200900555E0,8.416753411E-1,1.025507629E1
1.566667724E0,6.632007122E0,-7.328019142E0,1.086640596E0,9.943046354E0
1.569045849E0,6.036493301E0,-7.449754238E0,1.332503080E0,9.680581287E0
1.571423974E0,5.485246658E0,-7.566105366E0,1.572383523E0,9.476617078E0
1.573802099E0,4.996213913E0,-7.675876141E0,1.799402595E0,9.333760104E0
1.576180224E0,4.585246563E0,-7.779365540E0,2.008176327E0,9.250718156E0
1.578558349E0,4.265505314E0,-7.877171993E0,2.193620205E0,9.222599623E0
1.580936474E0,4.047758579E0,-7.969893932E0,2.351845503E0,9.243091262E0
1.583314599E0,3.938585997E0,-8.058727264E0,2.481057882E0,9.306513471E0
1.585692724E0,3.940380573E0,-8.146065712E0,2.579462767E0,9.409495938E0
1.588070849E0,4.053142548E0,-8.233104706E0,2.647658348E0,9.551024675E0
1.590448974E0,4.271786690E0,-8.322536469E0,2.686840773E0,9.733030778E0
1.592827099E0,4.587938309E0,-8.416753769E0,2.700001240E0,9.958962226E0
1.595205224E0,4.989932537E0,-8.517551422E0,2.690429926E0,1.023164318E1
1.597583349E0,5.462814331E0,-8.627920151E0,2.662314177E0,1.055325842E1
1.599961474E0,5.989833355E0,-8.748757362E0,2.620738983E0,1.092186485E1
1.602339599E0,6.552445889E0,-8.882756233E0,2.570190668E0,1.133330426E1
1.604717724E0,7.130312443E0,-9.030512810E0,2.516651154E0,1.177815988E1
1.607095849E0,7.703692436E0,-9.192625999E0,2.464308262E0,1.224434829E1
1.609473974E0,8.253144264E0,-9.368798256E0,2.418545485E0,1.271763080E1
1.611852099E0,8.759824753E0,-9.558428764E0,2.382952213E0,1.318243344E1
1.614230224E0,9.206684113E0,-9.760024071E0,2.361416817E0,1.362341336E1
1.616608349E0,9.579366684E0,-9.971489906E0,2.355434895E0,1.402650885E1
1.618986474E0,9.866206169E0,-1.019043350E1,2.367398977E0,1.438024816E1
1.621364599E0,1.005852890E1,-1.041356373E1,2.397608280E0,1.467531392E1
1.623742724E0,1.015125084E1,-1.063729286E1,2.445464849E0,1.490571003E1
1.626120849E0,1.014257717E1,-1.085773182E1,2.510370016E0,1.506864856E1
1.628498974E0,1.003489971E1,-1.107159042E1,2.590230465E0,1.516537572E1
1.630877099E0,9.834201813E0,-1.127438164E1,2.682952404E0,1.519938947E1
1.633255224E0,9.547960281E0,-1.146311569E1,2.785843849E0,1.517654417E1
1.635633349E0,9.188439369E0,-1.163510036E1,2.895614386E0,1.510587837E1
1.638011474E0,8.769096375E0,-1.178764248E1,3.009572744E0,1.499676947E1
1.640389599E0,8.305487633E0,-1.191864967E1,3.124727249E0,1.485931544E1
1.642767724E0,7.814360619E0,-1.202752304E1,3.238685369E0,1.470423834E1
1.645145849E0,7.313363075E0,-1.211336517E1,3.349951744E0,1.454101344E1
1.647523974E0,6.820441723E0,-1.217677498E1,3.456731319E0,1.437850012E1
1.649902099E0,6.351747513E0,-1.221924782E1,3.558725595E0,1.422389685E1
1.652280224E0,5.923731327E0,-1.224257755E1,3.655634880E0,1.408314469E1
1.654658349E0,5.549852848E0,-1.224945736E1,3.748057604E0,1.396058767E1
1.657036474E0,5.242375374E0,-1.224317646E1,3.837489367E0,1.386016573E1
1.659414599E0,5.010869503E0,-1.222762299E1,3.925425529E0,1.378522915E1
1.661792724E0,4.862215519E0,-1.220638657E1,4.014558315E0,1.373876600E1
1.664170849E0,4.800002098E0,-1.218395424E1,4.107280254E0,1.372437657E1
1.666548974E0,4.826323509E0,-1.216421318E1,4.205984116E0,1.374597335E1
1.668927099E0,4.939085007E0,-1.215165043E1,4.313661098E0,1.380814401E1
1.671305224E0,5.134399414E0,-1.214925766E1,4.432703972E0,1.391457450E1
1.673683349E0,5.405386448E0,-1.216032505E1,4.564907551E0,1.406876288E1
1.676061474E0,5.743671417E0,-1.218784237E1,4.712066174E0,1.427364111E1
1.678439599E0,6.138487339E0,-1.223270798E1,4.874777794E0,1.452871742E1
1.680817724E0,6.578168392E0,-1.229671574E1,5.053342342E0,1.483299653E1
1.683195849E0,7.050451756E0,-1.237986660E1,5.246861935E0,1.518221088E1
1.685573974E0,7.541877747E0,-1.248126221E1,5.454140186E0,1.556950453E1
1.687952099E0,8.039585114E0,-1.260000610E1,5.671886921E0,1.598641248E1
1.690330224E0,8.531010628E0,-1.273370457E1,5.898008823E0,1.642290725E1
1.692708349E0,9.004490852E0,-1.288026524E1,6.127420425E0,1.686793909E1
1.695086474E0,9.449555397E0,-1.303699493E1,6.356234074E0,1.731066278E1
1.697464599E0,9.856335640E0,-1.320060444E1,6.579963207E0,1.773976397E1
1.699842724E0,1.021765137E1,-1.336810207E1,6.792625427E0,1.814514571E1
1.702220849E0,1.052722359E1,-1.353649712E1,6.988836765E0,1.851764105E1
1.704598974E0,1.078146076E1,-1.370309734E1,7.164111137E0,1.885044459E1
1.706977099E0,1.097737312E1,-1.386550999E1,7.313064098E0,1.913729329E1
1.709355224E0,1.111436176E1,-1.402194023E1,7.430910587E0,1.937426844E1
1.711733349E0,1.119452190E1,-1.417119312E1,7.514360428E0,1.956030797E1
1.714111474E0,1.121964645E1,-1.431296730E1,7.560122967E0,1.969509987E1
1.716489599E0,1.119482040E1,-1.444726467E1,7.567002296E0,1.978148084E1
1.718867724E0,1.112512970E1,-1.457528114E1,7.533802032E0,1.982335754E1
1.721245849E0,1.101745319E1,-1.469881058E1,7.461419106E0,1.982705430E1
1.723623974E0,1.087956619E1,-1.482054520E1,7.351947784E0,1.980062263E1
1.726002099E0,1.071924686E1,-1.494317722E1,7.209574699E0,1.975294323E1
1.728380224E0,1.054576778E1,-1.507029629E1,7.038786888E0,1.969445529E1
1.730758349E0,1.036780167E1,-1.520549107E1,6.846463680E0,1.963599590E1
1.733136474E0,1.019462109E1,-1.535264874E1,6.639783859E0,1.958879404E1
1.735514599E0,1.003519917E1,-1.551566029E1,6.428318024E0,1.956436068E1
1.737892724E0,9.897611618E0,-1.569721603E1,6.221638203E0,1.957227858E1
1.740270849E0,9.790233612E0,-1.590060520E1,6.030810356E0,1.962265511E1
1.742648974E0,9.720243454E0,-1.612852287E1,5.866602898E0,1.972382854E1
1.745027099E0,9.693324089E0,-1.638216019E1,5.740680695E0,1.988192946E1
1.747405224E0,9.714859962E0,-1.666301918E1,5.664409637E0,2.010274232E1
1.749783349E0,9.788738251E0,-1.697049713E1,5.648856163E0,2.038937825E1
1.752161474E0,9.916754723E0,-1.730399513E1,5.703292847E0,2.074362121E1
1.754539599E0,1.009980488E1,-1.766142464E1,5.837290764E0,2.116615086E1
1.756917724E0,1.033729267E1,-1.803978920E1,6.057729721E0,2.165617010E1
1.759295849E0,1.062622643E1,-1.843520355E1,6.369693756E0,2.221140285E1
1.761673974E0,1.096271706E1,-1.884258080E1,6.775875568E0,2.282841444E1
1.764052099E0,1.134108162E1,-1.925683784E1,7.277471066E0,2.350335128E1
1.766430224E0,1.175384426E1,-1.967109680E1,7.871489048E0,2.422942930E1
1.768808349E0,1.219292736E1,-2.007937050E1,8.553443909E0,2.500020000E1
1.771186474E0,1.264846039E1,-2.047418785E1,9.314660072E0,2.580579025E1
1.773564599E0,1.310937786E1,-2.084956169E1,1.014526844E1,2.663618746E1
1.775942724E0,1.356461239E1,-2.119831467E1,1.103151035E1,2.747838195E1
1.778320797E0,1.400220013E1,-2.151446724E1,1.195753288E1,2.831813026E1
1.780698714E0,1.441077423E1,-2.179203415E1,1.290509033E1,2.913939812E1
1.783076630E0,1.477837181E1,-2.202623177E1,1.385504150E1,2.992519564E1
1.785454547E0,1.509362602E1,-2.221227264E1,1.478584957E1,3.065654824E1
1.787832464E0,1.534666729E1,-2.234687042E1,1.567597961E1,3.131515849E1
1.790210797E0,1.552822208E1,-2.242673111E1,1.650389671E1,3.188200991E1
1.792589130E0,1.563051605E1,-2.245035934E1,1.724776459E1,3.233909476E1
1.794967464E0,1.564786339E1,-2.241596222E1,1.788814354E1,3.266981283E1
1.797345745E0,1.557607937E1,-2.232353973E1,1.840678787E1,3.285977046E1
1.799723870E0,1.541306782E1,-2.217368889E1,1.878784561E1,3.289708621E1
1.802101995E0,1.515942860E1,-2.196700859E1,1.901815414E1,3.277267046E1
1.804480120E0,1.481725502E1,-2.170619202E1,1.908904266E1,3.248232393E1
1.806858245E0,1.439073467E1,-2.139332962E1,1.899482346E1,3.202453926E1
1.809236370E0,1.388704491E1,-2.103171539E1,1.873370743E1,3.140278431E1
1.811614495E0,1.331426334E1,-2.062523460E1,1.830898094E1,3.062496847E1
1.813992620E0,1.268196011E1,-2.017807579E1,1.772692680E1,2.970237008E1
1.816370745E0,1.200180054E1,-1.969412613E1,1.699831390E1,2.865038387E1
1.818748870E0,1.128604698E1,-1.917847443E1,1.613779449E1,2.748849121E1
1.821126995E0,1.054756260E1,-1.863590050E1,1.516301823E1,2.623861631E1
1.823505120E0,9.799506187E0,-1.807149315E1,1.409462261E1,2.492523967E1
1.825883245E0,9.055337906E0,-1.749093437E1,1.295474148E1,2.357450438E1
1.828261370E0,8.327022552E0,-1.689841270E1,1.176820087E1,2.221229858E1
1.830639495E0,7.626822948E0,-1.629990768E1,1.055922699E1,2.086510708E1
1.833017620E0,6.964609623E0,-1.569930935E1,9.352347374E0,1.955608608E1
1.835395745E0,6.350252151E0,-1.510140324E1,8.171489716E0,1.830713867E1
1.837773870E0,5.790032387E0,-1.451007652E1,7.038786888E0,1.713509021E1
1.840151995E0,5.290231705E0,-1.392832184E1,5.974279881E0,1.605231201E1
1.842530120E0,4.853541851E0,-1.335972691E1,4.995017052E0,1.506616630E1
1.844908245E0,4.481756687E0,-1.280608749E1,4.115056515E0,1.417800092E1
1.847286370E0,4.173980236E0,-1.226979637E1,3.343670607E0,1.338469825E1
1.849664495E0,3.927818298E0,-1.175174999E1,2.687737942E0,1.267893212E1
1.852042620E0,3.739383698E0,-1.125344467E1,2.148754835E0,1.205156234E1
1.854420745E0,3.602693558E0,-1.077488041E1,1.725225091E0,1.149146859E1
1.856798870E0,3.511168242E0,-1.031665516E1,1.411167145E0,1.098877012E1
1.859176995E0,3.457329512E0,-9.878469467E0,1.197906852E0,1.053433753E1
1.861555120E0,3.432803154E0,-9.459725380E0,1.073480010E0,1.012042001E1
1.863933245E0,3.429812193E0,-9.059525490E0,1.023828983E0,9.740987607E0
1.866311370E0,3.440280676E0,-8.676973343E0,1.033400297E0,9.391129522E0
1.868689495E0,3.456133127E0,-8.311170578E0,1.085444212E0,9.066344451E0
1.871067620E0,3.471387386E0,-7.960322857E0,1.163509965E0,8.761907658E0
1.873445745E0,3.479463339E0,-7.622635841E0,1.251147151E0,8.472107854E0
1.875823870E0,3.476173162E0,-7.296613693E0,1.333101273E0,8.191551150E0
1.878201995E0,3.457628727E0,-6.980761051E0,1.395912886E0,7.914214683E0
1.880580120E0,3.422334671E0,-6.672984123E0,1.428515077E0,7.634248295E0
1.882958245E0,3.369094372E0,-6.372086525E0,1.421934843E0,7.346848458E0
1.885336370E0,3.298206806E0,-6.076273918E0,1.370788217E0,7.048285834E0
1.887714495E0,3.210868835E0,-5.784648895E0,1.271486163E0,6.737100161E0
1.890092620E0,3.109772205E0,-5.495416164E0,1.124327540E0,6.413610092E0
1.892470745E0,2.997309446E0,-5.208277702E0,9.317052960E-1,6.080961709E0
1.894848870E0,2.877369165E0,-4.922036171E0,6.990033388E-1,5.744066421E0
1.897226995E0,2.753241539E0,-4.637290478E0,4.328017831E-1,5.410371460E0
1.899605120E0,2.628515720E0,-4.353142738E0,1.423729509E-1,5.087161945E0
1.901983245E0,2.507079840E0,-4.070490360E0,-1.630110443E-1,4.783399805E0
1.904361370E0,2.391327143E0,-3.789932013E0,-4.725824594E-1,4.506147395E0
1.906739495E0,2.284846544E0,-3.512065411E0,-7.752745152E-1,4.261006660E0
1.909117620E0,2.188535452E0,-3.238685369E0,-1.061815023E0,4.050459417E0
1.911495745E0,2.104786634E0,-2.970689297E0,-1.322034478E0,3.873357308E0
1.913873870E0,2.033301115E0,-2.709871531E0,-1.548754454E0,3.725098320E0
1.916251995E0,1.974676847E0,-2.457727909E0,-1.735394597E0,3.598801125E0
1.918630120E0,1.927717686E0,-2.216052771E0,-1.877468467E0,3.485953700E0
1.921008245E0,1.891526341E0,-1.986042738E0,-1.972583175E0,3.378360851E0
1.923386370E0,1.864008784E0,-1.769492388E0,-2.020439625E0,3.269221365E0
1.925764495E0,1.843370795E0,-1.567298889E0,-2.021935225E0,3.153198971E0
1.928142620E0,1.827219248E0,-1.381256819E0,-1.980958104E0,3.028332146E0
1.930520745E0,1.813161373E0,-1.211665511E0,-1.901994944E0,2.893660699E0
1.932898870E0,1.799103498E0,-1.059123158E0,-1.791625977E0,2.751079589E0
1.935276995E0,1.782951951E0,-9.239286184E-1,-1.656730533E0,2.603328218E0
1.937655120E0,1.762912035E0,-8.060821295E-1,-1.504786372E0,2.453978253E0
1.940033245E0,1.737787485E0,-7.046862841E-1,-1.344168067E0,2.307222550E0
1.942411370E0,1.706381679E0,-6.197410822E-1,-1.182054400E0,2.166349475E0
1.944789495E0,1.668395638E0,-5.494518876E-1,-1.025922656E0,2.034197306E0
1.947167620E0,1.623829246E0,-4.926223755E-1,-8.823533654E-1,1.912601810E0
1.949545745E0,1.572682738E0,-4.480560422E-1,-7.564310431E-1,1.801741695E0
1.951923870E0,1.516152263E0,-4.139583111E-1,-6.523432732E-1,1.701655345E0
1.954301995E0,1.455135226E0,-3.882354796E-1,-5.727819204E-1,1.611280374E0
1.956680120E0,1.390828133E0,-3.693920076E-1,-5.195416212E-1,1.529959753E0
1.959058245E0,1.325025558E0,-3.556332588E-1,-4.920241535E-1,1.457482594E0
1.961436370E0,1.259222865E0,-3.448655605E-1,-4.896313250E-1,1.394386357E0
1.963814495E0,1.195214868E0,-3.358924687E-1,-5.093721151E-1,1.341947198E0
1.966192620E0,1.134197950E0,-3.272185028E-1,-5.482555032E-1,1.301561000E0
1.968570745E0,1.077966571E0,-3.173480928E-1,-6.017948985E-1,1.274707355E0
1.970948870E0,1.027418256E0,-3.059822023E-1,-6.658028960E-1,1.261945671E0
1.973326995E0,9.840483069E-1,-2.922234535E-1,-7.351947427E-1,1.262638874E0
1.975705120E0,9.478568435E-1,-2.754737139E-1,-8.054839373E-1,1.274018342E0
1.978083245E0,9.194421172E-1,-2.557329237E-1,-8.721838593E-1,1.292856458E0
1.980461370E0,8.994022012E-1,-2.330010980E-1,-9.311071038E-1,1.315360890E0
1.982839495E0,8.868398666E-1,-2.081755698E-1,-9.795617461E-1,1.337670823E0
1.985217620E0,8.817551732E-1,-1.812563092E-1,-1.014257669E0,1.356121180E0
1.987595745E0,8.832506537E-1,-1.531406492E-1,-1.033998489E0,1.368479686E0
1.989973870E0,8.907282352E-1,-1.244267747E-1,-1.037886858E0,1.373349169E0
1.992351995E0,9.026923180E-1,-9.571290761E-2,-1.026221752E0,1.370089583E0
1.994730120E0,9.182456732E-1,-6.819544733E-2,-9.996016622E-1,1.359054531E0
1.997108245E0,9.361918569E-1,-4.247260094E-2,-9.604191780E-1,1.341888264E0
1.999486370E0,9.556335211E-1,-1.914258115E-2,-9.101698995E-1,1.319852685E0
2.001864495E0,9.750752449E-1,1.495514181E-3,-8.518448472E-1,1.294763922E0
2.004242620E0,9.936196208E-1,1.884347759E-2,-7.887341380E-1,1.268753943E0
2.006620745E0,1.010369420E0,3.260220960E-2,-7.241279483E-1,1.243491276E0
2.008998870E0,1.024427176E0,4.307080805E-2,-6.607181430E-1,1.219776454E0
2.011376995E0,1.035793066E0,5.024927482E-2,-6.014958024E-1,1.198828372E0
2.013755120E0,1.043270707E0,5.413761362E-2,-5.494518876E-1,1.180356737E0
2.016133245E0,1.047158957E0,5.533402413E-2,-5.060819983E-1,1.164355068E0
2.018511370E0,1.047158957E0,5.413761362E-2,-4.728815854E-1,1.150256387E0
2.020889495E0,1.043569803E0,5.114658549E-2,-4.510470629E-1,1.138023445E0
2.023267620E0,1.036391258E0,4.666004330E-2,-4.408775866E-1,1.127234246E0
2.025645745E0,1.026221752E0,4.187439755E-2,-4.417748749E-1,1.118056166E0
2.028023870E0,1.013958573E0,3.678964823E-2,-4.528416991E-1,1.111094537E0
2.030401995E0,9.993025661E-1,3.230310604E-2,-4.725824594E-1,1.105885749E0
2.032780120E0,9.837492108E-1,2.841476910E-2,-4.995017350E-1,1.103662943E0
2.035158245E0,9.669994712E-1,2.572284266E-2,-5.309075117E-1,1.103454769E0
2.037536370E0,9.505487680E-1,2.422732860E-2,-5.647061467E-1,1.105903683E0
2.039914495E0,9.340981245E-1,2.392822690E-2,-5.985047817E-1,1.109648521E0
2.042292620E0,9.188438654E-1,2.512463741E-2,-6.299105883E-1,1.114312634E0
2.044670745E0,9.044869542E-1,2.781656384E-2,-6.571289301E-1,1.118342006E0
2.047048870E0,8.916255236E-1,3.110669367E-2,-6.777670383E-1,1.120415931E0
2.049426995E0,8.802596331E-1,3.529413417E-2,-6.909275651E-1,1.119590817E0
2.051805120E0,8.703892231E-1,4.007977992E-2,-6.954140663E-1,1.114802454E0
2.054183245E0,8.620143533E-1,4.486542568E-2,-6.906284094E-1,1.105463365E0
2.056561370E0,8.548358679E-1,4.905286431E-2,-6.765705943E-1,1.091282875E0
2.058939495E0,8.482556343E-1,5.294119939E-2,-6.535396576E-1,1.072126147E0
2.061317620E0,8.422735929E-1,5.563312769E-2,-6.227321029E-1,1.048959066E0
2.063695745E0,8.362914920E-1,5.742774159E-2,-5.850451589E-1,1.022232480E0
2.066073870E0,8.300103545E-1,5.742774159E-2,-5.422734022E-1,9.931140805E-1
2.068451995E0,8.228318691E-1,5.623133108E-2,-4.959124923E-1,9.623634695E-1
2.070830120E0,8.141579032E-1,5.353940651E-2,-4.480560422E-1,9.308457318E-1
2.073208245E0,8.036893010E-1,4.935196787E-2,-4.001995921E-1,8.991728548E-1
2.075586370E0,7.917252183E-1,4.426721856E-2,-3.544368446E-1,8.685700229E-1
2.077964495E0,7.773682475E-1,3.798605874E-2,-3.125624657E-1,8.387130784E-1
2.080342620E0,7.606185079E-1,3.140579537E-2,-2.754737139E-1,8.095755712E-1
2.082720745E0,7.420741320E-1,2.452643216E-2,-2.446661144E-1,7.817525636E-1
2.085098870E0,7.211369276E-1,1.764706708E-2,-2.207378894E-1,7.543706669E-1
2.087476995E0,6.987041831E-1,1.166501082E-2,-2.042872310E-1,7.280500537E-1
2.089855120E0,6.750751138E-1,6.879365072E-3,-1.950150430E-1,7.027123180E-1
2.092233245E0,6.502495408E-1,3.589233849E-3,-1.932204217E-1,6.783594027E-1
2.094611370E0,6.251249313E-1,2.093719784E-3,-1.980060786E-1,6.557377300E-1
2.096989495E0,5.997011662E-1,2.991028363E-3,-2.087737769E-1,6.350093896E-1
2.099367620E0,5.754738450E-1,6.580262445E-3,-2.240280211E-1,6.175775258E-1
2.101745745E0,5.521438122E-1,1.286142133E-2,-2.425723970E-1,6.032160254E-1
2.104123870E0,5.303093195E-1,2.243271284E-2,-2.632105052E-1,5.924617887E-1
2.106501995E0,5.108676553E-1,3.499503061E-2,-2.844468057E-1,5.857647981E-1
2.108880120E0,4.938187599E-1,5.114658549E-2,-3.047857881E-1,5.825524161E-1
2.111258245E0,4.794618487E-1,7.058826834E-2,-3.227319419E-1,5.822561931E-1
2.113636370E0,4.680959284E-1,9.361918271E-2,-3.370888829E-1,5.843862289E-1
2.116014495E0,4.597210586E-1,1.205384433E-1,-3.466601670E-1,5.882569502E-1
2.118392620E0,4.540380836E-1,1.513460279E-1,-3.502494097E-1,5.930690098E-1
2.120770745E0,4.507479668E-1,1.863410622E-1,-3.472583890E-1,5.987362606E-1
2.123148870E0,4.498506486E-1,2.261217386E-1,-3.367897868E-1,6.057425255E-1
2.125526995E0,4.504488707E-1,2.700898647E-1,-3.191427290E-1,6.145769290E-1
2.127905120E0,4.525425732E-1,3.194418252E-1,-2.940180898E-1,6.271239888E-1
2.130283245E0,4.549354017E-1,3.738785386E-1,-2.620140910E-1,6.445174670E-1
2.132661370E0,4.573282301E-1,4.339981973E-1,-2.237289101E-1,6.689978853E-1
2.135039495E0,4.588237405E-1,4.998008311E-1,-1.794617027E-1,7.018023926E-1
2.137417620E0,4.588237405E-1,5.718846321E-1,-1.310070455E-1,7.448047417E-1
2.139795745E0,4.567300081E-1,6.505486369E-1,-7.926224917E-2,7.988105742E-1
2.142173870E0,4.522434771E-1,7.348956466E-1,-2.602194622E-2,8.632919064E-1
2.144551995E0,4.447658956E-1,8.255237937E-1,2.721835673E-2,9.381082426E-1
2.146930120E0,4.336991012E-1,9.212366939E-1,7.806584239E-2,1.021208222E0
2.149308245E0,4.193421602E-1,1.022034407E0,1.250249892E-1,1.111770401E0
2.151686370E0,4.010969102E-1,1.126421213E0,1.660020649E-1,1.207170314E0
2.154064495E0,3.795614839E-1,1.233500123E0,1.992024779E-1,1.305860291E0
2.156442620E0,3.550350666E-1,1.341476202E0,2.225325108E-1,1.405392834E0
2.158820745E0,3.278166950E-1,1.449153185E0,2.347957194E-1,1.504206691E0
2.161198870E0,2.985046208E-1,1.554138303E0,2.344966233E-1,1.599824846E0
2.163576995E0,2.679961324E-1,1.654935956E0,2.207378894E-1,1.690964270E0
2.165955120E0,2.371885478E-1,1.748854280E0,1.929213256E-1,1.775378364E0
2.168333245E0,2.066800594E-1,1.833500385E0,1.510469317E-1,1.851284820E0
2.170711370E0,1.776670814E-1,1.907378793E0,9.541380405E-2,1.918010231E0
2.173089495E0,1.513460279E-1,1.967498422E0,2.691925503E-2,1.973494440E0
2.175467620E0,1.280160099E-1,2.012662888E0,-5.353940651E-2,2.017440573E0
2.177845745E0,1.091725305E-1,2.040778637E0,-1.438684613E-1,2.048754309E0
2.180223870E0,9.541380405E-2,2.050349951E0,-2.416750938E-1,2.066747582E0
2.182601995E0,8.733802289E-2,2.041077614E0,-3.448655605E-1,2.071848935E0
2.184980120E0,8.554340899E-2,2.011765718E0,-4.504488707E-1,2.063352410E0
2.187358245E0,9.062815458E-2,1.962712765E0,-5.554339290E-1,2.041803543E0
2.189736370E0,1.025922745E-1,1.894218206E0,-6.565307379E-1,2.007391441E0
2.192114495E0,1.211366430E-1,1.807179332E0,-7.507480979E-1,1.960661605E0
2.194492620E0,1.462612897E-1,1.703390598E0,-8.353942037E-1,1.902844022E0
2.196870745E0,1.776670814E-1,1.584347725E0,-9.077770710E-1,1.834606910E0
2.199248870E0,2.144567221E-1,1.452443361E0,-9.655039310E-1,1.757208367E0
2.201626995E0,2.560320199E-1,1.310369492E0,-1.006481051E0,1.672012173E0
2.204005120E0,3.014956415E-1,1.160519004E0,-1.029811025E0,1.580574176E0
2.206383245E0,3.496512175E-1,1.005882859E0,-1.034297585E0,1.484529486E0
2.208761370E0,3.993022740E-1,8.494520187E-1,-1.019940615E0,1.386106019E0
2.211139495E0,4.495515525E-1,6.936194897E-1,-9.867402315E-1,1.287191081E0
2.213517620E0,4.989035130E-1,5.416752100E-1,-9.358927608E-1,1.190887068E0
2.215895745E0,5.461617708E-1,3.951148391E-1,-8.685946465E-1,1.099484004E0
2.218273870E0,5.904290080E-1,2.560320199E-1,-7.869395614E-1,1.016578911E0
2.220651995E0,6.311069727E-1,1.265204996E-1,-6.924230456E-1,9.453851712E-1
2.223030120E0,6.667001843E-1,7.178467698E-3,-5.880361795E-1,8.890034953E-1
2.225408245E0,6.969096065E-1,-1.016949639E-1,-4.758726060E-1,8.499880013E-1
2.227786370E0,7.211369276E-1,-2.000997961E-1,-3.589234054E-1,8.300026552E-1
2.230164495E0,7.396813035E-1,-2.889333367E-1,-2.398804724E-1,8.295502064E-1
2.232542620E0,7.528418303E-1,-3.684946895E-1,-1.220339537E-1,8.470250548E-1
2.234920745E0,7.624131441E-1,-4.411766827E-1,-8.075776510E-3,8.808949346E-1
2.237298870E0,7.716853023E-1,-5.090730190E-1,9.720841795E-2,9.295714179E-1
2.239676995E0,7.938188910E-1,-5.730810165E-1,1.839482337E-1,9.961963843E-1
2.242055120E0,8.350951076E-1,-6.382854581E-1,2.488535494E-1,1.080148255E0
2.244433245E0,9.134600163E-1,-7.082754970E-1,2.808575630E-1,1.189514334E0
2.246811370E0,1.049252748E0,-7.881359458E-1,2.685943544E-1,1.339489652E0
2.249189495E0,1.256531000E0,-8.850452900E-1,2.012962103E-1,1.550063058E0
2.251567620E0,1.561316729E0,-1.009771109E0,6.939185411E-2,1.860688810E0
2.253945745E0,1.986940145E0,-1.170090318E0,-1.405783296E-1,2.310152540E0
2.256323870E0,2.558525562E0,-1.379462242E0,-4.390829504E-1,2.939687563E0
2.258701995E0,3.297907829E0,-1.656132340E0,-8.431708813E-1,3.785486430E0
2.261080120E0,4.234398842E0,-2.013859272E0,-1.361516118E0,4.882569903E0
2.263458245E0,5.390730381E0,-2.473580360E0,-2.004587173E0,6.260746248E0
2.265836370E0,6.780960083E0,-3.057429075E0,-2.781058073E0,7.941257848E0
2.268214495E0,8.420641899E0,-3.786641836E0,-3.690629721E0,9.943169219E0
2.270592620E0,1.031635571E1,-4.685146809E0,-4.732405186E0,1.227898426E1
2.272970745E0,1.246421337E1,-5.776273727E0,-5.898008823E0,1.495019937E1
2.275348870E0,1.485344696E1,-7.080661297E0,-7.171588421E0,1.794971675E1
2.277726995E0,1.746222115E1,-8.618349075E0,-8.534002304E0,2.126109836E1
2.280105120E0,2.026062775E1,-1.040638542E1,-9.957432747E0,2.485832579E1
2.282483245E0,2.320888329E1,-1.245494080E1,-1.140748310E1,2.870380609E1
2.284861370E0,2.625763893E1,-1.476939869E1,-1.284317684E1,3.274974704E1
2.287239495E0,2.935185814E1,-1.734706688E1,-1.422054482E1,3.694152407E1
2.289617620E0,3.243112183E1,-2.017837334E1,-1.549083424E1,4.121784030E1
2.291995745E0,3.543231964E1,-2.324178505E1,-1.660409546E1,4.551182081E1
2.294373870E0,3.828934860E1,-2.650888634E1,-1.751037788E1,4.975347832E1
2.296751995E0,4.093790436E1,-2.994168854E1,-1.816152382E1,5.387260596E1
2.299130120E0,4.331846619E1,-3.349203873E1,-1.851416588E1,5.780121546E1
2.301508245E0,4.537539673E1,-3.710430527E1,-1.853031731E1,6.147380546E1
2.303886370E0,4.706113815E1,-4.071567154E1,-1.818246078E1,6.483146237E1
2.306264495E0,4.833920670E1,-4.425794601E1,-1.745085526E1,6.782313056E1
2.308642620E0,4.918387222E1,-4.765755081E1,-1.633101463E1,7.040594773E1
2.311020745E0,4.958347321E1,-5.084060287E1,-1.482921886E1,7.254787004E1
2.313398870E0,4.953980255E1,-5.373292542E1,-1.296700478E1,7.422642739E1
2.315776995E0,4.906871796E1,-5.626393509E1,-1.077847004E1,7.542907192E1
2.318155120E0,4.819773102E1,-5.836842346E1,-8.312366486E0,7.615109697E1
2.320533245E0,4.696662140E1,-5.998955917E1,-5.628517151E0,7.639562121E1
2.322911370E0,4.542385101E1,-6.108038712E1,-2.796611547E0,7.617060435E1
2.325289495E0,4.362474442E1,-6.160680771E1,1.058823988E-1,7.548859710E1
2.327667620E0,4.162853241E1,-6.154818344E1,2.995813847E0,7.436456479E1
2.330045745E0,3.949682617E1,-6.089853287E1,5.788836002E0,7.281580327E1
2.332423870E0,3.729034805E1,-5.966832352E1,8.401798248E0,7.086232499E1
2.334801995E0,3.506502151E1,-5.788357544E1,1.075633621E1,6.852563614E1
2.337180120E0,3.287349319E1,-5.558497238E1,1.278066349E1,6.583085195E1
2.339558245E0,3.075913620E1,-5.282843781E1,1.441496181E1,6.280731983E1
2.341936370E0,2.875843811E1,-4.968067932E1,1.561167240E1,5.948900718E1
2.344314495E0,2.689742088E1,-4.621946335E1,1.633819389E1,5.591642533E1
2.346692620E0,2.519343185E1,-4.252883148E1,1.657867241E1,5.213696284E1
2.349070745E0,2.365335083E1,-3.869822311E1,1.633370590E1,4.820605176E1
2.351448870E0,2.227658081E1,-3.481706619E1,1.562184143E1,4.418728415E1
2.353826995E0,2.105444717E1,-3.097449112E1,1.447747421E1,4.015353167E1
2.356205120E0,1.997229195E1,-2.725305367E1,1.294816113E1,3.618392262E1
2.358583245E0,1.901067734E1,-2.372992134E1,1.109701443E1,3.236755704E1
2.360961370E0,1.814746666E1,-2.047119522E1,8.994919777E0,2.879772494E1
2.363339495E0,1.735873222E1,-1.753221130E1,6.721139908E0,2.557103321E1
2.365717620E0,1.662174225E1,-1.495573997E1,4.358526230E0,2.278054487E1
2.368095745E0,1.591496277E1,-1.276959705E1,1.990828395E0,2.050151327E1
2.370473870E0,1.522014618E1,-1.098784161E1,-3.002992272E-1,1.877433601E1
2.372851995E0,1.452293777E1,-9.611370087E0,-2.439183474E0,1.758532833E1
2.375230120E0,1.381406403E1,-8.625826836E0,-4.361218452E0,1.685981850E1
2.377608245E0,1.308903885E1,-8.006982803E0,-6.007480145E0,1.647800137E1
2.379986370E0,1.234756279E1,-7.718946934E0,-7.336394310E0,1.630543253E1
2.382364495E0,1.159442234E1,-7.718049526E0,-8.318946838E0,1.622355677E1
2.384742620E0,1.083829021E1,-7.953742504E0,-8.939884186E0,1.614472310E1
2.387120745E0,1.009053326E1,-8.373085022E0,-9.199206352E0,1.601726605E1
2.389498870E0,9.364311218E0,-8.919844627E0,-9.110971451E0,1.581972672E1
2.391876995E0,8.674879074E0,-9.540184021E0,-8.701798439E0,1.555602565E1
2.394255120E0,8.036294937E0,-1.018175983E1,-8.009076118E0,1.524452590E1
2.396633245E0,7.463213921E0,-1.079791164E1,-7.079763889E0,1.491366872E1
2.399011370E0,6.966104984E0,-1.134736347E1,-5.967400551E0,1.459106390E1
2.401389495E0,6.555137634E0,-1.179691505E1,-4.729712963E0,1.430060205E1
2.403767620E0,6.235695839E0,-1.212144089E1,-3.425325632E0,1.405510895E1
2.406145745E0,6.010172367E0,-1.230359459E1,-2.112862349E0,1.385513620E1
2.408523870E0,5.876173973E0,-1.233589840E1,-8.467600942E-1,1.369017211E1
2.410901995E0,5.828616619E0,-1.221835041E1,3.242274821E-1,1.354126958E1
2.413280120E0,5.858527184E0,-1.195783234E1,1.358225942E0,1.338494948E1
2.415658245E0,5.953342915E0,-1.156899834E1,2.222334146E0,1.319934784E1
2.418036370E0,6.098407745E0,-1.107039356E1,2.893221617E0,1.296591385E1
2.420414495E0,6.277271271E0,-1.048564816E1,3.358027458E0,1.267396151E1
2.422792620E0,6.471388817E0,-9.840184212E0,3.613162279E0,1.231921427E1
2.425170745E0,6.662814617E0,-9.160921097E0,3.665206194E0,1.190585194E1
2.427548870E0,6.834499836E0,-8.474480629E0,3.529413462E0,1.144482282E1
2.429926995E0,6.970292568E0,-7.805686474E0,3.227917671E0,1.095140047E1
2.432305120E0,7.056134701E0,-7.177271366E0,2.789433002E0,1.044429019E1
2.434683245E0,7.080661297E0,-6.607480526E0,2.246561289E0,9.941911332E0
2.437061370E0,7.036394119E0,-6.111567974E0,1.634896040E0,9.462293082E0
2.439439495E0,6.918547630E0,-5.699105263E0,9.903294444E-1,9.018140303E0
2.441817620E0,6.726224422E0,-5.375176907E0,3.478565812E-1,8.617170415E0
2.444195745E0,6.462415695E0,-5.140082359E0,-2.599203587E-1,8.261405563E0
2.446573870E0,6.132505417E0,-4.989932537E0,-8.039883971E-1,7.946914291E0
2.448951995E0,5.746064663E0,-4.916652203E0,-1.261316657E0,7.666919049E0
2.451330120E0,5.313860893E0,-4.909174919E0,-1.613659739E0,7.412220567E0
2.453708245E0,4.849653244E0,-4.953142643E0,-1.849651933E0,7.174536285E0
2.456086370E0,4.367200375E0,-5.033302307E0,-1.964208245E0,6.947278982E0
2.458464495E0,3.882055521E0,-5.133502007E0,-1.958525300E0,6.727482387E0
2.460842620E0,3.408575773E0,-5.237888813E0,-1.840080619E0,6.514580931E0
2.463220745E0,2.960519791E0,-5.330610752E0,-1.620838284E0,6.309295140E0
2.465598870E0,2.550449848E0,-5.398806095E0,-1.317547917E0,6.114559199E0
2.467976995E0,2.188834429E0,-5.430809975E0,-9.499505758E-1,5.931871478E0
2.470355120E0,1.883450508E0,-5.417948723E0,-5.401797295E-1,5.761366879E0
2.472733245E0,1.639980793E0,-5.354239941E0,-1.106680483E-1,5.600863305E0
2.475111370E0,1.460818172E0,-5.237290382E0,3.158525825E-1,5.446371557E0
2.477489495E0,1.345364571E0,-5.067399979E0,7.184450030E-1,5.291947807E0
2.479867620E0,1.291226864E0,-4.847559452E0,1.078564763E0,5.131218316E0
2.482245745E0,1.293021560E0,-4.584050179E0,1.380060434E0,4.958829257E0
2.484623870E0,1.342971683E0,-4.284049988E0,1.611865163E0,4.770195650E0
2.487001995E0,1.432104349E0,-3.957429647E0,1.765604019E0,4.563937974E0
2.489380120E0,1.550249934E0,-3.614358664E0,1.837986946E0,4.341089658E0
2.491758245E0,1.686640859E0,-3.265903711E0,1.829911113E0,4.106027170E0
2.494136370E0,1.829911113E0,-2.922533751E0,1.746162295E0,3.865082271E0
2.496514495E0,1.970190287E0,-2.594717026E0,1.594517231E0,3.627215379E0
2.498892620E0,2.097009897E0,-2.291127682E0,1.386640668E0,3.401395141E0
2.501270745E0,2.202593327E0,-2.019243240E0,1.135992527E0,3.196754549E0
2.503648870E0,2.279761791E0,-1.784447432E0,8.572286963E-1,3.019338917E0
2.506026995E0,2.323729992E0,-1.590927958E0,5.659025311E-1,2.872458619E0
2.508405120E0,2.331805706E0,-1.439880967E0,2.775674164E-1,2.754563254E0
2.510783245E0,2.302194595E0,-1.331007600E0,6.281159353E-3,2.659270697E0
2.513161370E0,2.236391783E0,-1.261914849E0,-2.347957194E-1,2.578566719E0
2.515539495E0,2.137388945E0,-1.228415370E0,-4.348955154E-1,2.503311793E0
2.517917620E0,2.009073734E0,-1.225125194E0,-5.862415433E-1,2.425074877E0
2.520295745E0,1.857129455E0,-1.245165110E0,-6.831508875E-1,2.337960884E0
2.522673870E0,1.688435435E0,-1.281655669E0,-7.235297561E-1,2.239855080E0
2.525051995E0,1.509871125E0,-1.327119231E0,-7.082754970E-1,2.131340059E0
2.527430120E0,1.328913927E0,-1.373779297E0,-6.406782866E-1,2.015874611E0
2.529808245E0,1.152742267E0,-1.414756417E0,-5.270192027E-1,1.899499854E0
2.532186370E0,9.873384237E-1,-1.444068432E0,-3.750749528E-1,1.789092513E0
2.534564495E0,8.389834166E-1,-1.456331730E0,-1.950150430E-1,1.691988814E0
2.536942620E0,7.124629617E-1,-1.447956800E0,2.691925503E-3,1.613750171E0
2.539320745E0,6.107679605E-1,-1.416550994E0,2.066800594E-1,1.556396758E0
2.541698870E0,5.359922647E-1,-1.360917926E0,4.055834413E-1,1.517854814E0
2.544076995E0,4.893322289E-1,-1.281356573E0,5.895316601E-1,1.492939475E0
2.546455120E0,4.698905349E-1,-1.180259824E0,7.483552694E-1,1.474396818E0
2.548833245E0,4.755735099E-1,-1.059721351E0,8.745766878E-1,1.453982079E0
2.551211370E0,5.036891699E-1,-9.245268703E-1,9.622138143E-1,1.426291744E0
2.553589495E0,5.497509837E-1,-7.788637877E-1,1.006780148E0,1.386528474E0
2.555967620E0,6.098706722E-1,-6.281159520E-1,1.007079244E0,1.334421406E0
2.558345745E0,6.786643267E-1,-4.773681164E-1,9.634101987E-1,1.271465610E0
2.560723870E0,7.507480979E-1,-3.323032558E-1,8.775677085E-1,1.201737593E0
2.563101995E0,8.216354847E-1,-1.974078715E-1,7.543373108E-1,1.132730999E0
2.565480120E0,8.862416744E-1,-7.686942816E-2,5.991029739E-1,1.072500624E0
2.567858245E0,9.406784177E-1,2.512463741E-2,4.193421602E-1,1.030220841E0
2.570236370E0,9.813563824E-1,1.061815023E-1,2.225325108E-1,1.011857489E0
2.572614495E0,1.005882859E0,1.648056656E-1,1.704886183E-2,1.019437049E0
2.574992620E0,1.012463093E0,2.003988922E-1,-1.884347796E-1,1.049165810E0
2.577370745E0,1.000798106E0,2.132603228E-1,-3.867399693E-1,1.093912528E0
2.579748870E0,9.708877802E-1,2.048854381E-1,-5.703890920E-1,1.144528218E0
2.582126995E0,9.242277741E-1,1.776670814E-1,-7.334001660E-1,1.193163180E0
2.584505120E0,8.629116416E-1,1.345962733E-1,-8.703892231E-1,1.233008539E0
2.586883245E0,7.896314859E-1,7.926224917E-2,-9.783653617E-1,1.259761552E0
2.589261370E0,7.073782086E-1,1.555334684E-2,-1.055234790E0,1.270490574E0
2.591639495E0,6.200401783E-1,-5.264209956E-2,-1.100997567E0,1.264680456E0
2.594017620E0,5.312066078E-1,-1.208375469E-1,-1.116251707E0,1.242095023E0
2.596395745E0,4.444667995E-1,-1.854437590E-1,-1.103689432E0,1.204188725E0
2.598773870E0,3.634099364E-1,-2.431706041E-1,-1.067198873E0,1.153304885E0
2.601151995E0,2.910270393E-1,-2.907279432E-1,-1.010668516E0,1.091178411E0
2.603530120E0,2.297109663E-1,-3.257229924E-1,-9.400802255E-1,1.021084436E0
2.605908245E0,1.815554202E-1,-3.472583890E-1,-8.605188727E-1,9.455387299E-1
2.608286370E0,1.480558962E-1,-3.538386524E-1,-7.776673436E-1,8.671152390E-1
2.610664495E0,1.295115203E-1,-3.457628787E-1,-6.972087026E-1,7.889392734E-1
2.613042620E0,1.259222925E-1,-3.233301640E-1,-6.239284873E-1,7.139226680E-1
2.615420745E0,1.366899908E-1,-2.883351147E-1,-5.629115105E-1,6.470631040E-1
2.617798870E0,1.600200087E-1,-2.419741899E-1,-5.171487927E-1,5.929593456E-1
2.620176995E0,1.941177398E-1,-1.866401732E-1,-4.893322289E-1,5.585358372E-1
2.622555120E0,2.368894368E-1,-1.250249892E-1,-4.809573591E-1,5.505159711E-1
2.624933245E0,2.856431901E-1,-5.952146277E-2,-4.929214716E-1,5.728057382E-1
2.627311370E0,3.373879790E-1,6.580262445E-3,-5.246263742E-1,6.237842422E-1
2.629689495E0,3.897309899E-1,7.148557901E-2,-5.742774606E-1,6.977069831E-1
2.632067620E0,4.399802685E-1,1.325025558E-1,-6.403791308E-1,7.881782763E-1
2.634445745E0,4.857429862E-1,1.875374764E-1,-7.193422914E-1,8.880145752E-1
2.636823870E0,5.249254704E-1,2.350948304E-1,-8.081758618E-1,9.919498739E-1
2.639201995E0,5.560321808E-1,2.742772996E-1,-9.029914737E-1,1.095350823E0
2.641580120E0,5.778666735E-1,3.038884699E-1,-9.999007583E-1,1.194185756E0
2.643958245E0,5.895316601E-1,3.245265782E-1,-1.095314622E0,1.285526818E0
2.646336370E0,5.910272002E-1,3.358924687E-1,-1.185344458E0,1.366447359E0
2.648714495E0,5.826523304E-1,3.391826153E-1,-1.266999602E0,1.435206110E0
2.651092620E0,5.653043389E-1,3.355933726E-1,-1.337288737E0,1.490145320E0
2.653470745E0,5.401797295E-1,3.272185028E-1,-1.394118309E0,1.530500555E0
2.655848870E0,5.087739229E-1,3.161516786E-1,-1.435394526E0,1.555364984E0
2.658226995E0,4.722833633E-1,3.050848842E-1,-1.460519075E0,1.565006176E0
2.660605120E0,4.328017831E-1,2.964109182E-1,-1.468894005E0,1.559752036E0
2.662983245E0,3.921238184E-1,2.928216755E-1,-1.460519075E0,1.540331650E0
2.665361370E0,3.511467278E-1,2.967100143E-1,-1.436291814E0,1.508069969E0
2.667739495E0,3.122633696E-1,3.104687333E-1,-1.397408366E0,1.465144835E0
2.670117620E0,2.760719061E-1,3.361915946E-1,-1.345065475E0,1.413662483E0
2.672495745E0,2.434697002E-1,3.756731451E-1,-1.281655669E0,1.357589430E0
2.674873870E0,2.153540403E-1,4.307080805E-1,-1.208973646E0,1.301347029E0
2.677251995E0,1.917249113E-1,5.015954375E-1,-1.128515005E0,1.249760994E0
2.679630120E0,1.725823283E-1,5.895316601E-1,-1.043270707E0,1.210679977E0
2.682008245E0,1.570289880E-1,6.939185858E-1,-9.547362328E-1,1.190673079E0
2.684386370E0,1.444666684E-1,8.141579032E-1,-8.653044701E-1,1.196860700E0
2.686764495E0,1.339980662E-1,9.487541914E-1,-7.764709592E-1,1.233287131E0
2.689142620E0,1.241276711E-1,1.095613718E0,-6.900302172E-1,1.300737790E0
2.691520745E0,1.145563871E-1,1.252044439E0,-6.074778438E-1,1.396340852E0
2.693898870E0,1.031904742E-1,1.415354609E0,-5.303093195E-1,1.514960369E0
2.696276995E0,8.943174779E-2,1.581655741E0,-4.594219327E-1,1.649454889E0
2.698655120E0,7.238288224E-2,1.747657895E0,-3.957130313E-1,1.793358916E0
2.701033245E0,5.204389244E-2,1.909173369E0,-3.394817114E-1,1.939819413E0
2.703411370E0,2.751746029E-2,2.062613010E0,-2.919243574E-1,2.083350540E0
2.705789495E0,-2.991028305E-4,2.203490496E0,-2.527419031E-1,2.217937989E0
2.708167620E0,-3.140579537E-2,2.327917337E0,-2.225325108E-1,2.338740296E0
2.710545745E0,-6.430710852E-2,2.432603359E0,-2.015953064E-1,2.441789339E0
2.712923870E0,-9.810572863E-2,2.514557600E0,-1.896311939E-1,2.523605486E0
2.715301995E0,-1.310070455E-1,2.570489645E0,-1.872383654E-1,2.580627456E0
2.717680120E0,-1.609173268E-1,2.598904610E0,-1.941177398E-1,2.611107285E0
2.720058245E0,-1.863410622E-1,2.598605394E0,-2.102692872E-1,2.613749445E0
2.722436370E0,-2.051845491E-1,2.568396091E0,-2.350948304E-1,2.587282119E0
2.724814495E0,-2.153540403E-1,2.509472847E0,-2.685943544E-1,2.532977351E0
2.727192620E0,-2.147558331E-1,2.422134638E0,-3.104687333E-1,2.451376574E0
2.729570745E0,-2.027917206E-1,2.308475733E0,-3.598206937E-1,2.345134457E0
2.731948870E0,-1.773679852E-1,2.170888424E0,-4.160520434E-1,2.217502030E0
2.734326995E0,-1.387837082E-1,2.012662888E0,-4.782654345E-1,2.073357336E0
2.736705120E0,-8.644071966E-2,1.837388635E0,-5.458626747E-1,1.918706609E0
2.739083245E0,-2.093719877E-2,1.648953915E0,-6.173482537E-1,1.760853840E0
2.741461370E0,5.712864175E-2,1.452144265E0,-6.918248534E-1,1.609536665E0
2.743839495E0,1.456630826E-1,1.251147151E0,-7.677969933E-1,1.475160720E0
2.746217620E0,2.434697002E-1,1.050449133E0,-8.440681696E-1,1.369369180E0
2.748595745E0,3.478565812E-1,8.542376757E-1,-9.197412133E-1,1.302555222E0
2.750973870E0,4.561318159E-1,6.661019921E-1,-9.930213690E-1,1.279781050E0
2.753351995E0,5.662016869E-1,4.902295470E-1,-1.063011408E0,1.300347112E0
2.755730120E0,6.747759581E-1,3.287140131E-1,-1.128215909E0,1.355081781E0
2.758108245E0,7.791628838E-1,1.839482337E-1,-1.188634634E0,1.433102943E0
2.760486370E0,8.769695163E-1,5.742774159E-2,-1.242772222E0,1.522122292E0
2.762864495E0,9.669994712E-1,-5.054837838E-2,-1.290030479E0,1.613016353E0
2.765242620E0,1.047158957E0,-1.396810263E-1,-1.331007600E0,1.699303946E0
2.767620745E0,1.117149115E0,-2.111666054E-1,-1.365703583E0,1.777008654E0
2.769998870E0,1.178166032E0,-2.667997181E-1,-1.395015597E0,1.845352488E0
2.772376995E0,1.232004523E0,-3.089732230E-1,-1.420439363E0,1.905504547E0
2.774755120E0,1.280160069E0,-3.412763178E-1,-1.444367528E0,1.959968593E0
2.777133245E0,1.326521039E0,-3.687937856E-1,-1.469492197E0,2.013721490E0
2.779511370E0,1.376172066E0,-3.969094455E-1,-1.500299811E0,2.074195311E0
2.781889495E0,1.434198022E0,-4.331009090E-1,-1.539183140E0,2.147925767E0
2.784267620E0,1.508076429E0,-4.851447940E-1,-1.593320727E0,2.246849111E0
2.786645745E0,1.605284929E0,-5.662016869E-1,-1.666900039E0,2.382452475E0
2.789023870E0,1.737488389E0,-6.930212379E-1,-1.764407635E0,2.571435132E0
2.791401995E0,1.914856315E0,-8.853443861E-1,-1.882852316E0,2.827656668E0
2.793780120E0,2.149951220E0,-1.169192910E0,-2.017149448E0,3.171465624E0
2.796158245E0,2.458625317E0,-1.567897081E0,-2.171486616E0,3.635724664E0
2.798536370E0,2.855235577E0,-2.109273195E0,-2.340479612E0,4.251969947E0
2.800914495E0,3.357429266E0,-2.826521635E0,-2.505883455E0,5.053811207E0
2.803292620E0,3.981357813E0,-3.747160196E0,-2.673680305E0,6.086130622E0
2.805670745E0,4.743471622E0,-4.904089928E0,-2.827718258E0,7.385567791E0
2.808048870E0,5.658427238E0,-6.331408501E0,-2.957528830E0,8.991746726E0
2.810426995E0,6.740880489E0,-8.062017441E0,-3.043371201E0,1.094064455E1
2.812805120E0,7.999505043E0,-1.012463093E1,-3.071786165E0,1.326409072E1
2.815183245E0,9.440881729E0,-1.254197979E1,-3.028715372E0,1.598763965E1
2.817561370E0,1.106919765E1,-1.532034588E1,-2.898007393E0,1.912167831E1
2.819939495E0,1.287996578E1,-1.846242142E1,-2.668894529E0,2.266886678E1
2.822317620E0,1.486331654E1,-2.195564270E1,-2.334497690E0,2.661612865E1
2.824695745E0,1.700309944E1,-2.577070045E1,-1.889731646E0,3.093227244E1
2.827073870E0,1.927657890E1,-2.986601639E1,-1.337886930E0,3.557183395E1
2.829451995E0,2.164786720E1,-3.418894958E1,-6.822535396E-1,4.047196435E1
2.831830120E0,2.408106804E1,-3.866681671E1,6.191428751E-2,4.555243556E1
2.834208245E0,2.652772903E1,-4.321557236E1,8.784649968E-1,5.071565639E1
2.836586370E0,2.893580627E1,-4.773621368E1,1.745265007E0,5.584866097E1
2.838964495E0,3.124817085E1,-5.212076187E1,2.634796858E0,6.082733065E1
2.841342620E0,3.340589905E1,-5.625196838E1,3.516551971E0,6.551796834E1
2.843720745E0,3.534737396E1,-6.001109314E1,4.356432915E0,6.978357008E1
2.846098870E0,3.701307678E1,-6.327968979E1,5.119743347E0,7.348808587E1
2.848476995E0,3.834677887E1,-6.594499207E1,5.772086620E0,7.650185888E1
2.850855120E0,3.929702759E1,-6.790471649E1,6.280860424E0,7.870677294E1
2.853233245E0,3.982195282E1,-6.907092285E1,6.616752625E0,8.000226075E1
2.855611370E0,3.988775635E1,-6.937600708E1,6.757031918E0,8.031015468E1
2.857989495E0,3.947409439E1,-6.877391052E1,6.684648991E0,7.957851110E1
2.860367620E0,3.857289886E1,-6.724609375E1,6.390631199E0,7.778654009E1
2.862745745E0,3.719104385E1,-6.480122375E1,5.875277042E0,7.494592199E1
2.865123870E0,3.535036469E1,-6.147669983E1,5.146961689E0,7.110220897E1
2.867501995E0,3.308705521E1,-5.733890915E1,4.223630905E0,6.633507958E1
2.869880120E0,3.045136070E1,-5.248118210E1,3.131905794E0,6.075663484E1
2.872258245E0,2.750549698E1,-4.702135849E1,1.905883193E0,5.450864986E1
2.874636370E0,2.432244492E1,-4.109762573E1,5.859424472E-1,4.775918232E1
2.877014495E0,2.098325920E1,-3.486402512E1,-7.836494446E-1,4.069903587E1
2.879392620E0,1.757408524E1,-2.848356247E1,-2.155035973E0,3.353812730E1
2.881770745E0,1.418225956E1,-2.212403870E1,-3.480360508E0,2.650891329E1
2.884148870E0,1.089422226E1,-1.594995785E1,-4.713262558E0,1.988215476E1
2.886526995E0,7.791628838E0,-1.011745262E1,-5.810670853E0,1.402983333E1
2.888905120E0,4.947459698E0,-4.767998219E0,-6.735197544E0,9.621540959E0
2.891283245E0,2.425424814E0,-2.303091809E-2,-7.456334591E0,7.840927336E0
2.893661370E0,2.745763958E-1,4.020241261E0,-7.952546120E0,8.915196115E0
2.896039495E0,-1.468894005E0,7.291528702E0,-8.210372925E0,1.107854972E1
2.898417620E0,-2.785544634E0,9.750452995E0,-8.226823807E0,1.305799458E1
2.900795745E0,-3.671786308E0,1.138624668E1,-8.008777618E0,1.439684504E1
2.903173870E0,-4.138985157E0,1.221835041E1,-7.571788311E0,1.495831752E1
2.905551995E0,-4.213760853E0,1.229402351E1,-6.939484596E0,1.473279475E1
2.907930120E0,-3.935296059E0,1.168534946E1,-6.143572330E0,1.377597286E1
2.910308245E0,-3.354737282E0,1.048564816E1,-5.219942570E0,1.218404202E1
2.912686370E0,-2.530110836E0,8.805288315E0,-4.209573269E0,1.008241391E1
2.915064495E0,-1.526321769E0,6.765706062E0,-3.154338360E0,7.619336398E0
2.917442620E0,-4.106681943E-1,4.494019985E0,-2.096710920E0,4.976048701E0
2.919820745E0,7.495517135E-1,2.117947102E0,-1.077069283E0,2.491506760E0
2.922198870E0,1.890329838E0,-2.401795685E-1,-1.325025558E-1,1.910128281E0
2.924576995E0,2.953042269E0,-2.466701031E0,7.049853802E-1,3.911786932E0
2.926955120E0,3.886542082E0,-4.463511467E0,1.409372568E0,6.083952252E0
2.929333245E0,4.649254322E0,-6.149255276E0,1.962413669E0,7.954871061E0
2.931711370E0,5.210670471E0,-7.462316513E0,2.352742910E0,9.400673045E0
2.934089495E0,5.551647663E0,-8.363512993E0,2.576770782E0,1.036382598E1
2.936467620E0,5.664409637E0,-8.834898949E0,2.639283419E0,1.082158921E1
2.938845745E0,5.553442478E0,-8.880363464E0,2.551048040E0,1.078004753E1
2.941223870E0,5.232504845E0,-8.524131775E0,2.330011129E0,1.026980435E1
2.943601995E0,4.725824833E0,-7.808079243E0,1.998306036E0,9.343058858E0
2.945980120E0,4.064508438E0,-6.788736820E0,1.582253933E0,8.069120396E0
2.948358245E0,3.285644531E0,-5.534000397E0,1.110867858E0,6.531052578E0
2.950736370E0,2.429612398E0,-4.119543076E0,6.137589812E-1,4.821861844E0
2.953114495E0,1.539183140E0,-2.624029160E0,1.196411327E-1,3.044491381E0
2.955492620E0,6.556333899E-1,-1.126122117E0,-3.439682424E-1,1.347709285E0
2.957870745E0,-1.815554202E-1,3.000001311E-1,-7.528418303E-1,8.305018186E-1
2.960248870E0,-9.376873970E-1,1.587637782E0,-1.086939692E0,2.140394654E0
2.962626995E0,-1.583151340E0,2.680559635E0,-1.330708504E0,3.385639267E0
2.965005120E0,-2.095813513E0,3.534498215E0,-1.474277854E0,4.365616463E0
2.967383245E0,-2.459821701E0,4.119842529E0,-1.513161182E0,5.031250543E0
2.969761370E0,-2.668296337E0,4.421039104E0,-1.448854089E0,5.363261161E0
2.972139495E0,-2.721536636E0,4.437489510E0,-1.287039518E0,5.362326504E0
2.974517620E0,-2.626421928E0,4.182653904E0,-1.039681435E0,5.047140112E0
2.976895745E0,-2.397309303E0,3.682554007E0,-7.220342159E-1,4.453047194E0
2.979273870E0,-2.053340912E0,2.973381281E0,-3.541377485E-1,3.630787612E0
2.981651995E0,-1.617548108E0,2.101197481E0,4.277170449E-2,2.652041130E0
2.984030120E0,-1.116550922E0,1.116251707E0,4.450650215E-1,1.640361762E0
2.986408245E0,-5.775675774E-1,7.268198580E-2,8.288139701E-1,1.012817641E0
2.988786370E0,-2.841476910E-2,-9.744769931E-1,1.170688510E0,1.523458039E0
2.991164495E0,5.051847100E-1,-1.973779559E0,1.449153185E0,2.500212449E0
2.993542620E0,9.993025661E-1,-2.877668381E0,1.644467354E0,3.461770328E0
2.995920745E0,1.433898926E0,-3.645166159E0,1.740180254E0,4.286202255E0
2.998298870E0,1.794018745E0,-4.244867325E0,1.723430514E0,4.920123434E0
3.000676995E0,2.068295956E0,-4.654039860E0,1.584945917E0,5.333853085E0
3.003055120E0,2.251646042E0,-4.860421181E0,1.320838094E0,5.517084123E0
3.005433245E0,2.343171597E0,-4.862215519E0,9.308080077E-1,5.477042672E0
3.007811370E0,2.347059965E0,-4.667798996E0,4.196412563E-1,5.241482303E0
3.010189495E0,2.271985054E0,-4.294518471E0,-2.042872310E-1,4.862770636E0
3.012567620E0,2.129612207E0,-3.768396616E0,-9.281160831E-1,4.426901927E0
3.014945745E0,1.934896231E0,-3.121138096E0,-1.735693693E0,4.061767969E0
3.017323870E0,1.703988791E0,-2.389233351E0,-2.607578516E0,3.925745728E0
3.019701995E0,1.454237938E0,-1.612463355E0,-3.522234917E0,4.137751184E0
3.022080120E0,1.203290701E0,-8.306085467E-1,-4.456632137E0,4.690350635E0
3.024458245E0,9.667003751E-1,-8.255238086E-2,-5.386841774E0,5.473517042E0
3.026836370E0,7.591229677E-1,5.955137610E-1,-6.289235115E0,6.362812480E0
3.029214495E0,5.925226808E-1,1.173081279E0,-7.139883518E0,7.259830540E0
3.031592620E0,4.758726060E-1,1.623829246E0,-7.917252064E0,8.096058078E0
3.033970745E0,4.145565331E-1,1.929811478E0,-8.601000786E0,8.824581802E0
3.036348870E0,4.112663865E-1,2.079362869E0,-9.173783302E0,9.415476093E0
3.038726995E0,4.651049078E-1,2.069492579E0,-9.621240616E0,9.852278574E0
3.041105120E0,5.721837282E-1,1.903789520E0,-9.932606697E0,1.012958462E1
3.043483245E0,7.253243923E-1,1.593320727E0,-1.010040379E1,1.025099620E1
3.045861370E0,9.158528447E-1,1.155135155E0,-1.012134075E1,1.022813093E1
3.048239495E0,1.133599758E0,6.113662124E-1,-9.996315956E0,1.007894587E1
3.050617620E0,1.366301775E0,-1.196411345E-2,-9.729815483E0,9.825285391E0
3.052995745E0,1.602892041E0,-6.855437160E-1,-9.329915047E0,9.491393357E0
3.055373870E0,1.831406593E0,-1.380359530E0,-8.808876991E0,9.102513740E0
3.057751995E0,2.041376829E0,-2.066501379E0,-8.181060791E0,8.681440144E0
3.060130120E0,2.223829508E0,-2.716751099E0,-7.464111328E0,8.248582432E0
3.062508245E0,2.371287346E0,-3.305983543E0,-6.677470684E0,7.819280376E0
3.064886370E0,2.478665113E0,-3.813261986E0,-5.841777325E0,7.403452575E0
3.067264495E0,2.543271303E0,-4.223032951E0,-4.978865623E0,7.006521186E0
3.069642620E0,2.563909531E0,-4.523930073E0,-4.109972000E0,6.628080056E0
3.072020745E0,2.543271303E0,-4.710570335E0,-3.256332397E0,6.265891995E0
3.074398870E0,2.484647274E0,-4.783850670E0,-2.437987089E0,5.916289408E0
3.076776995E0,2.394019127E0,-4.748556614E0,-1.672882080E0,5.574823042E0
3.079155120E0,2.278266191E0,-4.615455627E0,-9.780662656E-1,5.239230965E0
3.081533245E0,2.146062851E0,-4.398905277E0,-3.664009571E-1,4.908177163E0
3.083911370E0,2.006381750E0,-4.116552353E0,1.501496136E-1,4.581933643E0
3.086289495E0,1.867598057E0,-3.788137436E0,5.638088584E-1,4.260960944E0
3.088667620E0,1.738983870E0,-3.434896946E0,8.688937426E-1,3.946841555E0
3.091045745E0,1.628315806E0,-3.078366280E0,1.063310504E0,3.641205919E0
3.093423870E0,1.542772412E0,-2.739183664E0,1.147358418E0,3.346596062E0
3.095801995E0,1.487737536E0,-2.435893536E0,1.124327540E0,3.067743912E0
3.098180120E0,1.467697620E0,-2.185245275E0,1.000199914E0,2.815995932E0
3.100558245E0,1.484746456E0,-2.000399828E0,7.824530005E-1,2.611188275E0
3.102936370E0,1.540379524E0,-1.890628934E0,4.818546474E-1,2.485846082E0
3.105314495E0,1.632802367E0,-1.862513304E0,1.091725305E-1,2.479297888E0
3.107692620E0,1.760519266E0,-1.917249203E0,-3.224328458E-1,2.622829680E0
3.110070745E0,1.919342875E0,-2.053041935E0,-7.995018363E-1,2.921996141E0
3.112448870E0,2.104786634E0,-2.264208317E0,-1.308275819E0,3.356836561E0
3.114826995E0,2.311167479E0,-2.542374134E0,-1.834098577E0,3.894750177E0
3.117205120E0,2.532204628E0,-2.876172781E0,-2.363510609E0,4.502289700E0
3.119583245E0,2.762214661E0,-3.252743244E0,-2.883351326E0,5.150134300E0
3.121961370E0,2.994318485E0,-3.657728434E0,-3.381955624E0,5.812275314E0
3.124339495E0,3.222832918E0,-4.076173306E0,-3.845565081E0,6.464534912E0
3.126717620E0,3.442972660E0,-4.493721008E0,-4.264308929E0,7.087448052E0
3.129095745E0,3.649652719E0,-4.897210598E0,-4.630710125E0,7.664601286E0
3.131473870E0,3.838984728E0,-5.273781300E0,-4.935495853E0,8.179834488E0
3.133851995E0,4.009174347E0,-5.614459038E0,-5.173282623E0,8.623136456E0
3.136230120E0,4.157828331E0,-5.911169052E0,-5.340480804E0,8.986111017E0
3.138608193E0,4.284647942E0,-6.159723759E0,-5.435296535E0,9.265141834E0
3.140986109E0,4.389932156E0,-6.357430458E0,-5.457130909E0,9.458789781E0
3.143364026E0,4.473979950E0,-6.505486488E0,-5.406881809E0,9.569337592E0
3.145741943E0,4.539782524E0,-6.607480526E0,-5.287539959E0,9.603463078E0
3.148119911E0,4.588536739E0,-6.668497562E0,-5.103591442E0,9.569230625E0
3.150498036E0,4.623531342E0,-6.696314335E0,-4.861019135E0,9.478774961E0
3.152876161E0,4.647459984E0,-6.700800896E0,-4.567001343E0,9.346502994E0
3.155254286E0,4.663312435E0,-6.691827774E0,-4.231108665E0,9.188542995E0
3.157632411E0,4.674079895E0,-6.680162430E0,-3.862314939E0,9.021589086E0
3.160010536E0,4.682754040E0,-6.677171707E0,-3.471985579E0,8.863830507E0
3.162388661E0,4.691727161E0,-6.693024158E0,-3.071786165E0,8.731823772E0
3.164766786E0,4.703392029E0,-6.738188744E0,-2.673680305E0,8.641391699E0
3.167144911E0,4.719543457E0,-6.820741177E0,-2.290828466E0,8.604911139E0
3.169523036E0,4.741976261E0,-6.948158741E0,-1.935494423E0,8.631882032E0
3.171901161E0,4.771587372E0,-7.125526905E0,-1.619342685E0,8.727167378E0
3.174279286E0,4.809573650E0,-7.356733322E0,-1.354337573E0,8.893129603E0
3.176657411E0,4.856831551E0,-7.642974854E0,-1.150947690E0,9.128447727E0
3.179035536E0,4.913063049E0,-7.984251022E0,-1.018146038E0,9.429903195E0
3.181413661E0,4.979164600E0,-8.378169060E0,-9.634101987E-1,9.793567079E0
3.183791786E0,5.054837704E0,-8.821439743E0,-9.930213690E-1,1.021544296E1
3.186169911E0,5.140082359E0,-9.309276581E0,-1.109671474E0,1.069179348E1
3.188548036E0,5.235496044E0,-9.835099220E0,-1.314856052E0,1.121911057E1
3.190926161E0,5.341079235E0,-1.039232826E1,-1.607378602E0,1.179454450E1
3.193304286E0,5.457430363E0,-1.097348499E1,-1.982154489E0,1.241490457E1
3.195682411E0,5.585147381E0,-1.157049370E1,-2.432603359E0,1.307622861E1
3.198060536E0,5.725127220E0,-1.217587757E1,-2.948854923E0,1.377406337E1
3.200438661E0,5.878866196E0,-1.278186035E1,-3.519243956E0,1.450248599E1
3.202816786E0,6.047261238E0,-1.338096333E1,-4.128815651E0,1.525341492E1
3.205194911E0,6.232405663E0,-1.396570969E1,-4.761716843E0,1.601742410E1
3.207573036E0,6.434599400E0,-1.453101349E1,-5.401497841E0,1.678483248E1
3.209951161E0,6.656234264E0,-1.507029629E1,-6.029613972E0,1.754353241E1
3.212329286E0,6.897909641E0,-1.557936954E1,-6.629015923E0,1.828228008E1
3.214707411E0,7.160222530E0,-1.605434418E1,-7.183253765E0,1.898973113E1
3.217085536E0,7.444071293E0,-1.649223137E1,-7.675576687E0,1.965508510E1
3.219463661E0,7.748857021E0,-1.689033699E1,-8.093124390E0,2.026886606E1
3.221841786E0,8.074280739E0,-1.724686813E1,-8.423334122E0,2.082308881E1
3.224219911E0,8.418847084E0,-1.756152344E1,-8.658727646E0,2.131332110E1
3.226598036E0,8.780462265E0,-1.783340836E1,-8.794221878E0,2.173626715E1
3.228976161E0,9.156135559E0,-1.806311989E1,-8.828319550E0,2.209186150E1
3.231354286E0,9.542277336E0,-1.825095558E1,-8.763712883E0,2.238202627E1
3.233732411E0,9.934999466E0,-1.839901161E1,-8.606683731E0,2.261200671E1
3.236110536E0,1.032891846E1,-1.850848389E1,-8.366803169E0,2.278714391E1
3.238488661E0,1.071894836E1,-1.858146477E1,-8.056334496E0,2.291443241E1
3.240866786E0,1.110000515E1,-1.861974907E1,-7.691130161E0,2.300127503E1
3.243244911E0,1.146550846E1,-1.862662888E1,-7.287341595E0,2.305459900E1
3.245623036E0,1.181007481E1,-1.860569191E1,-6.865307331E0,2.308207276E1
3.248001161E0,1.212802124E1,-1.856022835E1,-6.442974091E0,2.308858789E1
3.250379286E0,1.241366482E1,-1.849472427E1,-6.039185047E0,2.307868402E1
3.252757411E0,1.266251850E1,-1.841336823E1,-5.671886921E0,2.305562416E1
3.255135536E0,1.287039471E1,-1.832094574E1,-5.356931686E0,2.302174689E1
3.257513661E0,1.303460217E1,-1.822104454E1,-5.105685234E0,2.297771397E1
3.259891786E0,1.315244865E1,-1.811905098E1,-4.928018093E0,2.292536317E1
3.262269911E0,1.322273827E1,-1.801944923E1,-4.830211639E0,2.286640117E1
3.264648036E0,1.324636745E1,-1.792642975E1,-4.814060211E0,2.280347145E1
3.267026161E0,1.322453213E1,-1.784447479E1,-4.877170563E0,2.273984000E1
3.269404286E0,1.315962696E1,-1.777807426E1,-5.014459133E0,2.267995826E1
3.271782411E0,1.305703449E1,-1.773021698E1,-5.217250824E0,2.262888530E1
3.274160536E0,1.292154121E1,-1.770299911E1,-5.473282814E0,2.259024634E1
3.276538661E0,1.275942802E1,-1.770060730E1,-5.767899036E0,2.256951842E1
3.278916786E0,1.257906818E1,-1.772244072E1,-6.084050655E0,2.256841895E1
3.281294911E0,1.238824081E1,-1.777029800E1,-6.407381058E0,2.258996533E1
3.283673036E0,1.219591808E1,-1.784477425E1,-6.718746662E0,2.263444151E1
3.286051161E0,1.200957680E1,-1.794616890E1,-7.002894402E0,2.270100093E1
3.288429286E0,1.183878899E1,-1.807328796E1,-7.246065140E0,2.278828915E1
3.290807411E0,1.168983555E1,-1.822553253E1,-7.435397148E0,2.289339254E1
3.293185536E0,1.156959629E1,-1.840140343E1,-7.561618805E0,2.301402367E1
3.295563661E0,1.148285675E1,-1.859971046E1,-7.617849827E0,2.314815035E1
3.297941786E0,1.143320560E1,-1.881865311E1,-7.600800991E0,2.329446438E1
3.300319911E0,1.142243767E1,-1.905554199E1,-7.509873867E0,2.345173700E1
3.302698036E0,1.145025444E1,-1.930828476E1,-7.348956585E0,2.362044348E1
3.305076161E0,1.151426220E1,-1.957538223E1,-7.123732090E0,2.380170965E1
3.307454286E0,1.161236858E1,-1.985324860E1,-6.843173504E0,2.399640822E1
3.309832411E0,1.173829079E1,-2.013949013E1,-6.518348217E0,2.420486308E1
3.312210536E0,1.188574791E1,-2.043081665E1,-6.162116528E0,2.442664431E1
3.314588661E0,1.204786205E1,-2.072393799E1,-5.787639618E0,2.466027895E1
3.316966786E0,1.221565914E1,-2.101526451E1,-5.408377171E0,2.490209257E1
3.319344911E0,1.238166046E1,-2.130060768E1,-5.038686275E0,2.514775860E1
3.321723036E0,1.253659630E1,-2.157578278E1,-4.689932346E0,2.539047291E1
3.324101161E0,1.267268753E1,-2.183660126E1,-4.374079704E0,2.562355824E1
3.326479286E0,1.278275776E1,-2.207857513E1,-4.100400925E0,2.583942073E1
3.328857411E0,1.286022568E1,-2.229811668E1,-3.875774384E0,2.603100150E1
3.331235536E0,1.290000629E1,-2.249014091E1,-3.704388618E0,2.619043902E1
3.333613661E0,1.289821148E1,-2.265165520E1,-3.589533091E0,2.631247024E1
3.335991786E0,1.285244846E1,-2.277817535E1,-3.530609846E0,2.639120895E1
3.338369911E0,1.276211929E1,-2.286611176E1,-3.524328709E0,2.642255946E1
3.340748036E0,1.262812138E1,-2.291277313E1,-3.566203117E0,2.640421229E1
3.343126161E0,1.245195007E1,-2.291486549E1,-3.649652719E0,2.633366830E1
3.345504286E0,1.223779202E1,-2.286970139E1,-3.765704632E0,2.621006155E1
3.347882411E0,1.198923779E1,-2.277488518E1,-3.905385733E0,2.603246541E1
3.350260536E0,1.171167088E1,-2.262892342E1,-4.058227062E0,2.580117471E1
3.352638661E0,1.141077328E1,-2.243091774E1,-4.214358807E0,2.551690886E1
3.355016786E0,1.109252739E1,-2.217996979E1,-4.363910198E0,2.518012978E1
3.357394911E0,1.076261711E1,-2.187638092E1,-4.498207569E0,2.479201163E1
3.359773036E0,1.042642593E1,-2.152104759E1,-4.609772682E0,2.435396993E1
3.362151161E0,1.008963585E1,-2.111516380E1,-4.690829754E0,2.386744179E1
3.364529286E0,9.756135941E0,-2.066082764E1,-4.738088131E0,2.333455520E1
3.366907411E0,9.430113792E0,-2.016072655E1,-4.748257637E0,2.275802917E1
3.369285536E0,9.114261627E0,-1.961755562E1,-4.719842434E0,2.214035153E1
3.371663661E0,8.810373306E0,-1.903520393E1,-4.653142929E0,2.148519038E1
3.374041786E0,8.519644737E0,-1.841755676E1,-4.551746845E0,2.079685416E1
3.376419911E0,8.241778374E0,-1.776850319E1,-4.417748928E0,2.007892233E1
3.378798036E0,7.976474285E0,-1.709223175E1,-4.256831646E0,1.933621328E1
3.381176161E0,7.721937656E0,-1.639322853E1,-4.074976921E0,1.857341379E1
3.383554286E0,7.476673603E0,-1.567538071E1,-3.877569199E0,1.779476753E1
3.385932411E0,7.237989426E0,-1.494407463E1,-3.672085524E0,1.700582458E1
3.388310536E0,7.003492832E0,-1.420289803E1,-3.463610888E0,1.621011488E1
3.390688661E0,6.771090031E0,-1.345633698E1,-3.259024382E0,1.541239452E1
3.393066786E0,6.537789822E0,-1.270887947E1,-3.063411236E0,1.461652495E1
3.395444911E0,6.302395821E0,-1.196471119E1,-2.880360365E0,1.382645952E1
3.397823036E0,6.062814236E0,-1.122742271E1,-2.713161707E0,1.304507507E1
3.400201161E0,5.818148136E0,-1.050150013E1,-2.564507723E0,1.227636154E1
3.402579286E0,5.568397522E0,-9.790533066E0,-2.433799744E0,1.152323608E1
3.404957411E0,5.312963486E0,-9.098110199E0,-2.321038008E0,1.078843861E1
3.407335536E0,5.053043365E0,-8.428119659E0,-2.224726915E0,1.007550783E1
3.409713661E0,4.790132046E0,-7.783553123E0,-2.141875267E0,9.387049265E0
3.412091786E0,4.525126934E0,-7.167401314E0,-2.069791555E0,8.725391249E0
3.414469911E0,4.260719776E0,-6.582654953E0,-2.003689766E0,8.093197880E0
3.416848036E0,3.999004841E0,-6.031109333E0,-1.940280080E0,7.492062886E0
3.419226161E0,3.742374659E0,-5.514857769E0,-1.874477386E0,6.923343829E0
3.421604286E0,3.492922783E0,-5.034798145E0,-1.802991867E0,6.387525468E0
3.423982411E0,3.252743244E0,-4.591826439E0,-1.721935034E0,5.884748841E0
3.426360536E0,3.024228811E0,-4.186243057E0,-1.628016710E0,5.414889588E0
3.428738661E0,2.808874607E0,-3.816851139E0,-1.519442320E0,4.976628793E0
3.431116786E0,2.608176708E0,-3.483052492E0,-1.394716501E0,4.569406364E0
3.433494911E0,2.422433853E0,-3.183351517E0,-1.253539920E0,4.192049020E0
3.435873036E0,2.253141642E0,-2.915355206E0,-1.096810102E0,3.844338127E0
3.438251161E0,2.099701881E0,-2.676970243E0,-9.257232547E-1,3.525887295E0
3.440629286E0,1.961815476E0,-2.465205431E0,-7.426723242E-1,3.236899745E0
3.443007411E0,1.838884234E0,-2.277069807E0,-5.509474277E-1,2.978268826E0
3.445385536E0,1.729711652E0,-2.109871387E0,-3.544368446E-1,2.751197039E0
3.447763661E0,1.633101463E0,-1.960319996E0,-1.573280841E-1,2.556291650E0
3.450141786E0,1.546959877E0,-1.825125456E0,3.649054468E-2,2.392801569E0
3.452519911E0,1.470090389E0,-1.701895118E0,2.225325108E-1,2.259896781E0
3.454898036E0,1.400399446E0,-1.587637782E0,3.963112533E-1,2.153781546E0
3.457276161E0,1.335793257E0,-1.479960799E0,5.545366406E-1,2.069332858E0
3.459654286E0,1.275374413E0,-1.377368569E0,6.936194897E-1,2.001207652E0
3.462032411E0,1.216750264E0,-1.278066397E0,8.111668825E-1,1.942144853E0
3.464410536E0,1.159023523E0,-1.180558920E0,9.053842425E-1,1.885941547E0
3.466788661E0,1.100997567E0,-1.084846020E0,9.750752449E-1,1.827527910E0
3.469166786E0,1.042373419E0,-9.903294444E-1,1.020239711E0,1.763004203E0
3.471544911E0,9.822536707E-1,-8.970093727E-1,1.041476011E0,1.689414209E0
3.473923036E0,9.209375978E-1,-8.051848412E-1,1.040279627E0,1.605811443E0
3.476301161E0,8.581260443E-1,-7.160521746E-1,1.018744230E0,1.512266786E0
3.478679286E0,7.947162390E-1,-6.299105883E-1,9.795617461E-1,1.409929950E0
3.481057411E0,7.316055298E-1,-5.482555032E-1,9.257232547E-1,1.301074284E0
3.483435536E0,6.687939167E-1,-4.719842672E-1,8.608179688E-1,1.187881319E0
3.485813661E0,6.083751321E-1,-4.016951025E-1,7.884350419E-1,1.073829163E0
3.488191786E0,5.503492355E-1,-3.388835192E-1,7.121638656E-1,9.617191337E-1
3.490569911E0,4.965106845E-1,-2.835494876E-1,6.352944374E-1,8.547059108E-1
3.492948036E0,4.477569461E-1,-2.368894368E-1,5.608177781E-1,7.557244659E-1
3.495326161E0,4.043870270E-1,-1.983051747E-1,4.917250574E-1,6.668188225E-1
3.497704286E0,3.672982752E-1,-1.683948934E-1,4.304089844E-1,5.903530782E-1
3.500082411E0,3.373879790E-1,-1.465603858E-1,3.780659735E-1,5.274888391E-1
3.502460536E0,3.143570721E-1,-1.325025558E-1,3.361915946E-1,4.789593765E-1
3.504838661E0,2.985046208E-1,-1.247258782E-1,3.053839803E-1,4.448830506E-1
3.507216786E0,2.892324328E-1,-1.226321608E-1,2.853440940E-1,4.243999282E-1
3.509594859E0,2.862414122E-1,-1.250249892E-1,2.757728100E-1,4.166725773E-1
3.511972776E0,2.889333367E-1,-1.307079345E-1,2.757728100E-1,4.202590629E-1
3.514350693E0,2.961117923E-1,-1.384846121E-1,2.838485837E-1,4.329320961E-1
3.516728609E0,3.068794906E-1,-1.465603858E-1,2.982055247E-1,4.523068686E-1
3.519106578E0,3.200400174E-1,-1.543370634E-1,3.173480928E-1,4.763983143E-1
3.521484703E0,3.346960545E-1,-1.603191197E-1,3.391826153E-1,5.027608930E-1
3.523862828E0,3.493520916E-1,-1.642074585E-1,3.622135222E-1,5.293482870E-1
3.526240953E0,3.634099364E-1,-1.648056656E-1,3.843471408E-1,5.540310586E-1
3.528619078E0,3.753740489E-1,-1.621137410E-1,4.046861231E-1,5.752889708E-1
3.530997203E0,3.849453330E-1,-1.555334777E-1,4.211367965E-1,5.913795511E-1
3.533375328E0,3.912265003E-1,-1.453639716E-1,4.334000051E-1,6.016846543E-1
3.535753453E0,3.936193287E-1,-1.316052526E-1,4.405784607E-1,6.052813383E-1
3.538131578E0,3.924229145E-1,-1.151545867E-1,4.423730969E-1,6.024535497E-1
3.540509703E0,3.873381615E-1,-9.601201117E-2,4.387838542E-1,5.931108061E-1
3.542887828E0,3.783650696E-1,-7.567301393E-2,4.304089844E-1,5.780470784E-1
3.545265953E0,3.664009571E-1,-5.413761362E-2,4.172484577E-1,5.579218745E-1
3.547644078E0,3.520440459E-1,-3.290131316E-2,4.007977843E-1,5.344683065E-1
3.550022203E0,3.352942765E-1,-1.226321608E-2,3.816552162E-1,5.081666482E-1
3.552400328E0,3.176472187E-1,6.879365072E-3,3.604189157E-1,4.804673517E-1
3.554778453E0,2.997010350E-1,2.362912335E-2,3.388835192E-1,4.530133391E-1
3.557156578E0,2.820539773E-1,3.738785535E-2,3.173480928E-1,4.262183828E-1
3.559534703E0,2.656033039E-1,4.845465720E-2,2.970091105E-1,4.013818388E-1
3.561912828E0,2.512463629E-1,5.593222752E-2,2.787638307E-1,3.794238029E-1
3.564290953E0,2.392822653E-1,5.982056633E-2,2.629113793E-1,3.604953481E-1
3.566669078E0,2.300100774E-1,6.041877344E-2,2.500499785E-1,3.450797815E-1
3.569047203E0,2.243271172E-1,5.802594870E-2,2.401795685E-1,3.337302674E-1
3.571425328E0,2.219343036E-1,5.294119939E-2,2.333002090E-1,3.263228360E-1
3.573803453E0,2.231307179E-1,4.576273263E-2,2.291127741E-1,3.230699742E-1
3.576181578E0,2.273181528E-1,3.678964823E-2,2.273181528E-1,3.235746643E-1
3.578559703E0,2.341975123E-1,2.691925503E-2,2.273181528E-1,3.274853640E-1
3.580937828E0,2.437688112E-1,1.674975827E-2,2.282154560E-1,3.343442569E-1
3.583315953E0,2.551347017E-1,6.879365072E-3,2.300100774E-1,3.435777603E-1
3.585694078E0,2.676970363E-1,-2.392822644E-3,2.309073806E-1,3.535330921E-1
3.588072203E0,2.808575630E-1,-1.016949583E-2,2.309073806E-1,3.637342543E-1
3.590450328E0,2.940180898E-1,-1.645065658E-2,2.294118702E-1,3.732922011E-1
3.592828453E0,3.065803945E-1,-2.063809521E-2,2.249253243E-1,3.808003030E-1
3.595206578E0,3.182454109E-1,-2.243271284E-2,2.177468538E-1,3.862603533E-1
3.597584703E0,3.278166950E-1,-2.213360928E-2,2.069791555E-1,3.883220995E-1
3.599962828E0,3.355933726E-1,-1.974078640E-2,1.923231184E-1,3.872993574E-1
3.602340953E0,3.406781256E-1,-1.495514158E-2,1.740778536E-1,3.828685684E-1
3.604719078E0,3.433700502E-1,-8.673981763E-3,1.519442350E-1,3.755865811E-1
3.607097203E0,3.433700502E-1,-8.973084623E-4,1.259222925E-1,3.657324436E-1
3.609475328E0,3.406781256E-1,8.075776510E-3,9.661021084E-2,3.542038061E-1
3.611853453E0,3.355933726E-1,1.794617064E-2,6.460621208E-2,3.422264446E-1
3.614231578E0,3.284149170E-1,2.781656384E-2,2.961117961E-2,3.309183296E-1
3.616609703E0,3.194418252E-1,3.768695518E-2,-7.178467698E-3,3.217373411E-1
3.618987828E0,3.089732230E-1,4.695914313E-2,-4.546362907E-2,3.158109485E-1
3.621365953E0,2.973082066E-1,5.593222752E-2,-8.494520187E-2,3.142232822E-1
3.623744078E0,2.850449979E-1,6.370890141E-2,-1.247258782E-1,3.175941115E-1
3.626122203E0,2.727817893E-1,7.058826834E-2,-1.645065546E-1,3.262744469E-1
3.628500328E0,2.605185509E-1,7.627122104E-2,-2.033899277E-1,3.391971067E-1
3.630878453E0,2.485544533E-1,8.105687052E-2,-2.407777756E-1,3.554201313E-1
3.633256578E0,2.377867550E-1,8.464609832E-2,-2.766701281E-1,3.745048232E-1
3.635634703E0,2.282154560E-1,8.763712645E-2,-3.101696372E-1,3.949275429E-1
3.638012828E0,2.195414752E-1,9.002995491E-2,-3.409772217E-1,4.154146336E-1
3.640390953E0,2.123630047E-1,9.242277592E-2,-3.684946895E-1,4.352336745E-1
3.642769078E0,2.066800594E-1,9.481559694E-2,-3.927220106E-1,4.538030652E-1
3.645147203E0,2.021935135E-1,9.810572863E-2,-4.130610228E-1,4.702407462E-1
3.647525328E0,1.992024779E-1,1.019940674E-1,-4.298107624E-1,4.845840572E-1
3.649903453E0,1.968096644E-1,1.076770201E-1,-4.420739710E-1,4.957396298E-1
3.652281578E0,1.950150430E-1,1.157527938E-1,-4.504488707E-1,5.043151409E-1
3.654659703E0,1.935195327E-1,1.262213886E-1,-4.540380836E-1,5.094430584E-1
3.657037828E0,1.917249113E-1,1.405783296E-1,-4.537389874E-1,5.122497214E-1
3.659415953E0,1.890329868E-1,1.588236094E-1,-4.486542344E-1,5.121025591E-1
3.661794078E0,1.854437590E-1,1.824527234E-1,-4.396811724E-1,5.108795527E-1
3.664172203E0,1.797607988E-1,2.114657015E-1,-4.268197417E-1,5.091235406E-1
3.666550328E0,1.722832322E-1,2.464607358E-1,-4.103690982E-1,5.087506296E-1
3.668928453E0,1.618146300E-1,2.880360186E-1,-3.906283081E-1,5.116045324E-1
3.671306578E0,1.480558962E-1,3.364906907E-1,-3.678964674E-1,5.200907076E-1
3.673684703E0,1.313061416E-1,3.918247223E-1,-3.430709541E-1,5.370899323E-1
3.676062828E0,1.106680483E-1,4.546363056E-1,-3.167499006E-1,5.650416682E-1
3.678440953E0,8.644071966E-2,5.243272781E-1,-2.889333367E-1,6.048748347E-1
3.680819078E0,5.832505226E-2,6.002993584E-1,-2.605185509E-1,6.569863368E-1
3.683197203E0,2.691925503E-2,6.813562512E-1,-2.318046987E-1,7.202113618E-1
3.685575328E0,-7.477570791E-3,7.668996453E-1,-2.033899277E-1,7.934471897E-1
3.687953453E0,-4.426721856E-2,8.545367718E-1,-1.755733639E-1,8.735094087E-1
3.690331578E0,-8.255238086E-2,9.430712461E-1,-1.486541033E-1,9.582777850E-1
3.692709703E0,-1.211366430E-1,1.030110121E0,-1.223330572E-1,1.044397589E0
3.695087828E0,-1.594218016E-1,1.112961650E0,-9.661021084E-2,1.128464655E0
3.697465953E0,-1.959123611E-1,1.189232826E0,-7.178468257E-2,1.207397784E0
3.699844078E0,-2.288136631E-1,1.256531000E0,-4.666004330E-2,1.278046559E0
3.702222203E0,-2.575275302E-1,1.311864972E0,-2.153540403E-2,1.337076627E0
3.704600328E0,-2.802593410E-1,1.352842093E0,4.486542661E-3,1.381574158E0
3.706978453E0,-2.955136001E-1,1.377368569E0,3.200400248E-2,1.409076549E0
3.709356578E0,-3.026920557E-1,1.383350611E0,6.191428751E-2,1.417432458E0
3.711734703E0,-3.002992272E-1,1.369591832E0,9.481559694E-2,1.405329645E0
3.714112828E0,-2.880360186E-1,1.334596872E0,1.310070455E-1,1.371596298E0
3.716490953E0,-2.650051117E-1,1.278664589E0,1.713859290E-1,1.317036058E0
3.718869078E0,-2.312064916E-1,1.202094316E0,2.159522474E-1,1.243029590E0
3.721247203E0,-1.869392693E-1,1.105484009E0,2.650051117E-1,1.152071566E0
3.723625328E0,-1.325025558E-1,9.909276962E-1,3.182454109E-1,1.049178139E0
3.726003453E0,-6.909275055E-2,8.608179688E-1,3.753740489E-1,9.416406216E-1
3.728381578E0,2.691925503E-3,7.178468108E-1,4.357928336E-1,8.397777587E-1
3.730759703E0,8.135596663E-2,5.653043389E-1,4.983053207E-1,7.579551317E-1
3.733137828E0,1.657029688E-1,4.073780477E-1,5.620142221E-1,7.136345938E-1
3.735515953E0,2.542374134E-1,2.479562461E-1,6.242275834E-1,7.181775813E-1
3.737894078E0,3.463610709E-1,9.032905847E-2,6.831508875E-1,7.712460472E-1
3.740272203E0,4.411766827E-1,-6.161518395E-2,7.363911867E-1,8.606423625E-1
3.742650328E0,5.380859971E-1,-2.042872310E-1,7.806583643E-1,9.698955071E-1
3.745028453E0,6.376872063E-1,-3.358924687E-1,8.126623631E-1,1.086226882E0
3.747406578E0,7.399803996E-1,-4.543372095E-1,8.297112584E-1,1.201005439E0
3.749784703E0,8.458628058E-1,-5.596213937E-1,8.279166222E-1,1.309238681E0
3.752162828E0,9.580263495E-1,-6.523432732E-1,8.042874932E-1,1.410760293E0
3.754540953E0,1.079761267E0,-7.354938388E-1,7.534400225E-1,1.508147024E0
3.756919078E0,1.215254784E0,-8.141579032E-1,6.711867452E-1,1.609406390E0
3.759297203E0,1.369292736E0,-8.961120844E-1,5.530411601E-1,1.727377778E0
3.761675328E0,1.549950838E0,-9.912267923E-1,3.939184248E-1,1.881502028E0
3.764053453E0,1.764108539E0,-1.113260746E0,1.923231184E-1,2.094854794E0
3.766431578E0,2.021935225E0,-1.281954765E0,-4.725824669E-2,2.394548687E0
3.768809703E0,2.330310106E0,-1.520040631E0,-3.215355575E-1,2.800759509E0
3.771187828E0,2.701496840E0,-1.854736686E0,-6.290132403E-1,3.336733583E0
3.773565953E0,3.149851799E0,-2.316252232E0,-9.559326172E-1,4.024971792E0
3.775944078E0,3.682853222E0,-2.932105064E0,-1.298106313E0,4.883208777E0
3.778322203E0,4.316352844E0,-3.740280867E0,-1.641775489E0,5.942729137E0
3.780700328E0,5.063511848E0,-4.770989418E0,-1.978864312E0,7.233076540E0
3.783078453E0,5.933900833E0,-6.057430744E0,-2.291426897E0,8.783751109E0
3.785456578E0,6.940382004E0,-7.633403301E0,-2.560021162E0,1.062974396E1
3.787834703E0,8.088039398E0,-9.529715538E0,-2.766103029E0,1.280168682E1
3.790212828E0,9.382257462E0,-1.177179050E1,-2.891427040E0,1.532847537E1
3.792590953E0,1.082393360E1,-1.437159157E1,-2.916551590E0,1.822653165E1
3.794969026E0,1.240887928E1,-1.733330727E1,-2.827120066E0,2.150387020E1
3.797346943E0,1.412901974E1,-2.065005875E1,-2.611765862E0,2.515701584E1
3.799724859E0,1.596910000E1,-2.429851532E1,-2.262413740E0,2.916416495E1
3.802102776E0,1.791117477E1,-2.824188805E1,-1.776371717E0,3.348984799E1
3.804480745E0,1.992832375E1,-3.243052292E1,-1.154536963E0,3.808162102E1
3.806858870E0,2.199003983E1,-3.679981613E1,-4.046861231E-1,4.287134346E1
3.809236995E0,2.405893517E1,-4.127021027E1,4.606183469E-1,4.777315968E1
3.811615120E0,2.609163666E1,-4.574987030E1,1.422533035E0,5.268631451E1
3.813993245E0,2.804417992E1,-5.013412094E1,2.455335140E0,5.749725889E1
3.816371370E0,2.986691284E1,-5.431258774E1,3.529712439E0,6.208339987E1
3.818749495E0,3.151048279E1,-5.816951752E1,4.612165451E0,6.631647883E1
3.821127620E0,3.292643738E1,-6.159035873E1,5.665606022E0,7.006869243E1
3.823505745E0,3.406840897E1,-6.446413422E1,6.652645111E0,7.321570034E1
3.825883870E0,3.489423370E1,-6.669006348E1,7.534998417E0,7.564356095E1
3.828261995E0,3.536861038E1,-6.817899323E1,8.277072906E0,7.725169030E1
3.830640120E0,3.546312714E1,-6.886064911E1,8.846863747E0,7.795953681E1
3.833018245E0,3.515893936E1,-6.868447876E1,9.217751503E0,7.770891572E1
3.835396370E0,3.444797134E1,-6.762296295E1,9.368498802E0,7.646761810E1
3.837774495E0,3.333441162E1,-6.567550659E1,9.287740707E0,7.423420567E1
3.840152620E0,3.183291626E1,-6.286663055E1,8.970991135E0,7.103538890E1
3.842530745E0,2.997189903E1,-5.924898148E1,8.423932076E0,6.693070423E1
3.844908870E0,2.778994370E1,-5.490062332E1,7.660621643E0,6.200842310E1
3.847286995E0,2.533729935E1,-4.992415237E1,6.704390049E0,5.638571250E1
3.849665120E0,2.267229271E1,-4.444219589E1,5.586044312E0,5.020304297E1
3.852043245E0,1.986042786E1,-3.859473419E1,4.343571186E0,4.362174587E1
3.854421370E0,1.697258949E1,-3.253431320E1,3.019742250E0,3.681941299E1
3.856799495E0,1.408176136E1,-2.641885567E1,1.660020709E0,2.998345555E1
3.859177620E0,1.125972652E1,-2.040718842E1,3.125624657E-1,2.330949325E1
3.861555745E0,8.576175690E0,-1.465244961E1,-9.762716293E-1,1.700582769E1
3.863933870E0,6.094519138E0,-9.297611237E0,-2.161915302E0,1.132530865E1
3.866311995E0,3.870091438E0,-4.468297005E0,-3.204886913E0,6.724179206E0
3.868690120E0,1.948953986E0,-2.703889608E-1,-4.071686745E0,4.522185841E0
3.871068245E0,3.646063507E-1,3.215355396E0,-4.735994339E0,5.735947219E0
3.873446370E0,-8.614161611E-1,5.934798241E0,-5.180460930E0,7.924710935E0
3.875824495E0,-1.721336842E0,7.861618996E0,-5.396413326E0,9.689650693E0
3.878202620E0,-2.220240355E0,8.998807907E0,-5.385346413E0,1.071960666E1
3.880580693E0,-2.375175476E0,9.376275063E0,-5.156831741E0,1.096124565E1
3.882958609E0,-2.215454578E0,9.050851822E0,-4.730011940E0,1.044984070E1
3.885336526E0,-1.779960990E0,8.100004196E0,-4.130609989E0,9.265002320E0
3.887714443E0,-1.115653515E0,6.621538639E0,-3.390928745E0,7.522489912E0
3.890092359E0,-2.754737139E-1,4.725824833E0,-2.548057079E0,5.376048828E0
3.892470693E0,6.849454641E-1,2.533401012E0,-1.641476393E0,3.095434659E0
3.894849026E0,1.708176255E0,1.680957973E-1,-7.118647099E-1,1.858190970E0
3.897227359E0,2.738286495E0,-2.248355865E0,2.003988922E-1,3.548728891E0
3.899605641E0,3.723830223E0,-4.599902630E0,1.058524966E0,6.012195176E0
3.901983766E0,4.617549419E0,-6.781857491E0,1.828714728E0,8.405923579E0
3.904361891E0,5.381158829E0,-8.703293800E0,2.482852697E0,1.052942310E1
3.906740016E0,5.983551979E0,-1.029302597E1,2.999403238E0,1.227785395E1
3.909118141E0,6.404090881E0,-1.149781227E1,3.363411427E0,1.358398334E1
3.911496266E0,6.631109715E0,-1.228654575E1,3.568296671E0,1.441053655E1
3.913874391E0,6.663113594E0,-1.264875984E1,3.614059448E0,1.474617354E1
3.916252516E0,6.507580280E0,-1.259492111E1,3.507578850E0,1.460423734E1
3.918630641E0,6.180660725E0,-1.215374470E1,3.263211966E0,1.402007951E1
3.921008766E0,5.705386639E0,-1.137009525E1,2.899801970E0,1.304758040E1
3.923386891E0,5.110770226E0,-1.030229759E1,2.440679073E0,1.175645450E1
3.925765016E0,4.429413795E0,-9.018847466E0,1.912762642E0,1.022829297E1
3.928143141E0,3.696312666E0,-7.593622684E0,1.344168067E0,8.551761257E0
3.930521266E0,2.947359324E0,-6.103492260E0,7.630113363E-1,6.820684060E0
3.932899391E0,2.216650963E0,-4.623531342E0,1.971087605E-1,5.131221630E0
