"Time (s)","Acceleration x (m/s^2)","Acceleration y (m/s^2)","Acceleration z (m/s^2)","Absolute acceleration (m/s^2)"
1.488578400E-2,-3.512663603E0,-2.662015259E-1,7.570890903E0,8.350332802E0
1.726265900E-2,-3.421736479E0,-4.785645381E-2,8.018946648E0,8.718605170E0
1.963953400E-2,-3.346960783E0,1.680957973E-1,8.529216766E0,9.163947912E0
2.201640900E-2,-3.186641455E0,4.127618968E-1,9.049654961E0,9.603192753E0
2.439349300E-2,-3.092125177E0,6.209374666E-1,9.513264656E0,1.002242515E1
2.677057600E-2,-2.944966555E0,8.422735929E-1,1.000857925E1,1.046680044E1
2.914765900E-2,-2.831307411E0,1.027717352E0,1.048235798E1,1.090652710E1
3.152474300E-2,-2.732005358E0,1.228116274E0,1.092323494E1,1.132648155E1
3.390161800E-2,-2.629113913E0,1.415354609E0,1.136471081E1,1.175040937E1
3.627849300E-2,-2.507678032E0,1.577468276E0,1.175833035E1,1.212580669E1
3.865536800E-2,-2.443071842E0,1.654636860E0,1.215673542E1,1.250970180E1
4.103224300E-2,-2.325823545E0,1.627119422E0,1.272862053E1,1.304127116E1
4.340911800E-2,-2.134995937E0,1.544566989E0,1.311924839E1,1.338127696E1
4.578599300E-2,-2.186441660E0,1.444068432E0,1.378265858E1,1.402952381E1
4.816286800E-2,-2.157727718E0,1.363908887E0,1.431745434E1,1.454322987E1
5.053974300E-2,-1.947159410E0,1.307079315E0,1.452802277E1,1.471609091E1
5.291661800E-2,-1.733001828E0,1.213759303E0,1.408116341E1,1.423922996E1
5.529349300E-2,-1.581057549E0,1.132403374E0,1.334716511E1,1.348810205E1
5.767036800E-2,-1.621735573E0,1.081555843E0,1.259641647E1,1.274635231E1
6.004724300E-2,-1.779063582E0,1.068993568E0,1.188993549E1,1.206972993E1
6.242432600E-2,-2.004587173E0,9.439685345E-1,1.133958626E1,1.155403232E1
6.480140900E-2,-2.189432621E0,9.008977413E-1,1.089511967E1,1.114938853E1
6.717849300E-2,-2.299502611E0,8.063812256E-1,1.056849957E1,1.084578932E1
6.955557600E-2,-2.386242390E0,7.046862841E-1,1.040279675E1,1.069621034E1
7.193245100E-2,-2.508874655E0,5.587241054E-1,1.017607689E1,1.049567366E1
7.430932600E-2,-2.644667149E0,4.827519655E-1,1.019282627E1,1.054139560E1
7.668620100E-2,-2.914458036E0,4.307080805E-1,1.061037350E1,1.101179372E1
7.906307600E-2,-3.145963669E0,4.618147612E-1,1.111645603E1,1.156226427E1
8.143995100E-2,-3.154936552E0,4.492524564E-1,1.132164001E1,1.176158939E1
8.381682600E-2,-3.075973511E0,4.857429862E-1,1.147537899E1,1.189041136E1
8.619370100E-2,-2.972483873E0,4.863412082E-1,1.157527924E1,1.196073900E1
8.857057600E-2,-2.776870728E0,4.857429862E-1,1.167458153E1,1.201011287E1
9.094765900E-2,-2.566900492E0,4.827519655E-1,1.184626675E1,1.213078989E1
9.332474300E-2,-2.356930256E0,4.031906128E-1,1.197846985E1,1.221480343E1
9.570182600E-2,-2.061416626E0,3.068794906E-1,1.206760311E1,1.224625079E1
9.807890900E-2,-1.783849239E0,1.668993831E-1,1.204666519E1,1.217916728E1
1.004557840E-1,-1.475773335E0,-5.982056726E-3,1.202273750E1,1.211297485E1
1.028326590E-1,-1.204786181E0,-1.830509305E-1,1.197488117E1,1.203672698E1
1.052095340E-1,-9.744769931E-1,-3.900300860E-1,1.181934738E1,1.186586286E1
1.075864090E-1,-8.237292171E-1,-5.670989752E-1,1.164168072E1,1.168455652E1
1.099632840E-1,-7.082754970E-1,-8.105686903E-1,1.151186943E1,1.156208517E1
1.123401590E-1,-6.502495408E-1,-1.058225870E0,1.139641571E1,1.146389801E1
1.147170340E-1,-6.269195080E-1,-1.228116274E0,1.122772217E1,1.131207509E1
1.170939090E-1,-6.586244106E-1,-1.299900889E0,1.082572746E1,1.092336503E1
1.194707840E-1,-7.375875711E-1,-1.368694544E0,1.033340454E1,1.044971816E1
1.218476590E-1,-9.212366939E-1,-1.470389485E0,9.875777245E0,1.002704834E1
1.242245340E-1,-1.095912814E0,-1.581057549E0,9.464810371E0,9.658333357E0
1.266014090E-1,-1.299302697E0,-1.680957913E0,9.065208435E0,9.310843731E0
1.289784930E-1,-1.454836130E0,-1.680359721E0,8.655437469E0,8.936260669E0
1.313555760E-1,-1.599601984E0,-1.615753531E0,8.235497475E0,8.543582658E0
1.337326590E-1,-1.651645780E0,-1.472184181E0,7.883752346E0,8.188333841E0
1.361097430E-1,-1.788036704E0,-1.286142230E0,7.520641804E0,7.836535601E0
1.384866180E-1,-1.870589137E0,-1.085743308E0,7.266404152E0,7.581462362E0
1.408634930E-1,-1.945364833E0,-8.967102766E-1,7.060023308E0,7.377835913E0
1.432403680E-1,-1.972882271E0,-7.022934556E-1,6.944569588E0,7.253449339E0
1.456172430E-1,-1.946561217E0,-5.754738450E-1,6.823133945E0,7.118667541E0
1.479941180E-1,-1.862214208E0,-5.521438122E-1,6.766902447E0,7.040147248E0
1.503709930E-1,-1.549950838E0,-7.310073376E-1,6.588637352E0,6.807852928E0
1.527478680E-1,-1.405185103E0,-9.397810698E-1,6.711867332E0,6.921480819E0
1.551247430E-1,-1.643869162E0,-8.273184299E-1,7.057630539E0,7.293621215E0
1.575016180E-1,-1.959721804E0,-6.747759581E-1,7.386643410E0,7.671918470E0
1.598784930E-1,-2.317448616E0,-5.395814776E-1,7.691728592E0,8.051360443E0
1.622553680E-1,-2.542374134E0,-3.451646566E-1,7.905886173E0,8.311789282E0
1.646322430E-1,-2.703889608E0,-1.286142170E-1,8.078767776E0,8.520214165E0
1.670093260E-1,-2.752942562E0,1.615155339E-1,8.240283012E0,8.689478934E0
1.693864090E-1,-2.745165825E0,4.947160780E-1,8.385646820E0,8.837406407E0
1.717634930E-1,-2.699702263E0,8.404789567E-1,8.465208054E0,8.924939472E0
1.741405760E-1,-2.756531715E0,1.222732425E0,8.563912392E0,9.079324707E0
1.765174510E-1,-2.711068153E0,1.542772412E0,8.681758881E0,9.225127344E0
1.788943260E-1,-2.560918331E0,1.871187329E0,9.064012527E0,9.602914548E0
1.812712010E-1,-2.323430777E0,2.122433662E0,9.467801094E0,9.977089394E0
1.836480760E-1,-2.209771633E0,2.312663078E0,1.012642574E1,1.061960449E1
1.860249510E-1,-2.186441660E0,2.418545485E0,1.087896824E1,1.135701718E1
1.884018260E-1,-1.823929071E0,2.411366940E0,1.123669529E1,1.163635376E1
1.907787010E-1,-1.305284739E0,2.323430777E0,1.133360481E1,1.164271003E1
1.931555760E-1,-8.554341197E-1,2.156531334E0,1.131446171E1,1.154986747E1
1.955324510E-1,-4.145565331E-1,1.989033818E0,1.129711437E1,1.147836686E1
1.979093260E-1,-4.486542568E-2,1.837687731E0,1.126002502E1,1.140908728E1
2.002862010E-1,2.398804724E-1,1.713261008E0,1.122413254E1,1.135667016E1
2.026630760E-1,5.389832854E-1,1.636690736E0,1.128275681E1,1.141358229E1
2.050401590E-1,7.579265833E-1,1.604985833E0,1.134497070E1,1.148297838E1
2.074172430E-1,9.379864931E-1,1.579262972E0,1.145683479E1,1.160314413E1
2.097943260E-1,1.103689432E0,1.594218135E0,1.162911797E1,1.178965845E1
2.121714090E-1,1.219741344E0,1.612762451E0,1.185763264E1,1.202880806E1
2.145482840E-1,1.289731383E0,1.665404558E0,1.209332561E1,1.227540239E1
2.169251590E-1,1.306481123E0,1.668395638E0,1.227458191E1,1.245615502E1
2.193020340E-1,1.308874011E0,1.695314884E0,1.243908882E1,1.262213034E1
2.216789090E-1,1.266999602E0,1.692921996E0,1.255274773E1,1.272960126E1
2.240557840E-1,1.209571838E0,1.668993831E0,1.253839111E1,1.270668549E1
2.264326590E-1,1.109671474E0,1.636690736E0,1.245105267E1,1.260709482E1
2.288095340E-1,1.001396298E0,1.528415442E0,1.227398396E1,1.240925181E1
2.311864090E-1,8.823533654E-1,1.462612867E0,1.213101292E1,1.225068399E1
2.335632840E-1,7.716853023E-1,1.473978758E0,1.205145168E1,1.216575519E1
2.359401590E-1,5.551348329E-1,1.438086390E0,1.192044449E1,1.201970316E1
2.383170340E-1,3.146561682E-1,1.415354609E0,1.179183006E1,1.188063523E1
2.406939090E-1,1.052841991E-1,1.381256819E0,1.169073296E1,1.177251852E1
2.430709930E-1,-7.537391037E-2,1.356730461E0,1.159860992E1,1.167793436E1
2.454480760E-1,-2.440679073E-1,1.250848055E0,1.143589783E1,1.150669149E1
2.478251590E-1,-3.523431420E-1,1.144367456E0,1.129711437E1,1.136039241E1
2.502022430E-1,-4.618147612E-1,1.053440213E0,1.110808086E1,1.116747374E1
2.525791180E-1,-5.060819983E-1,9.158528447E-1,1.090648556E1,1.095656573E1
2.549559930E-1,-6.293123364E-1,7.716853023E-1,1.072941685E1,1.077552403E1
2.573328680E-1,-7.830511928E-1,6.430711150E-1,1.050568771E1,1.055443906E1
2.597097430E-1,-9.343972206E-1,5.036891699E-1,1.029930687E1,1.035386512E1
2.620866180E-1,-1.066002488E0,4.115654826E-1,1.009771156E1,1.016216150E1
2.644634930E-1,-1.148554921E0,3.493520916E-1,9.903892517E0,9.976387737E0
2.668403680E-1,-1.210768223E0,2.398804724E-1,9.787242889E0,9.864766886E0
2.692172430E-1,-1.226321578E0,1.824527234E-1,9.649655342E0,9.728977430E0
2.715943260E-1,-1.222732425E0,1.094716340E-1,9.518050194E0,9.596892107E0
2.739714090E-1,-1.255633712E0,6.400800496E-2,9.437292099E0,9.520671993E0
2.763484930E-1,-1.241874933E0,2.931207791E-2,9.370293617E0,9.452275653E0
2.787255760E-1,-1.207777262E0,-8.374879137E-3,9.272786140E0,9.351115380E0
2.811024510E-1,-1.283749342E0,-4.307080805E-2,9.129216194E0,9.219135306E0
2.834793260E-1,-1.355534077E0,-9.152546525E-2,8.917451859E0,9.020354605E0
2.858562010E-1,-1.438684583E0,-1.381855011E-1,8.649456024E0,8.769378432E0
2.882330760E-1,-1.557129383E0,-1.980060786E-1,8.333602905E0,8.480141255E0
2.906099510E-1,-1.719243050E0,-3.637090325E-1,8.379066467E0,8.561357123E0
2.929868260E-1,-1.911267042E0,-4.331009090E-1,8.070392609E0,8.304923537E0
2.953637010E-1,-2.038684845E0,-3.667000830E-1,7.376473904E0,7.661793008E0
2.977405760E-1,-2.185245275E0,-3.792623878E-1,6.966104984E0,7.310660403E0
3.001174510E-1,-2.319841623E0,-3.900300860E-1,6.561119556E0,6.970084537E0
3.024943260E-1,-2.437089920E0,-3.798605800E-1,6.200401783E0,6.672981613E0
3.048712010E-1,-2.518445730E0,-3.846462369E-1,5.790630817E0,6.326288555E0
3.072480760E-1,-2.547757864E0,-3.726821244E-1,5.473581791E0,6.048971790E0
3.096251590E-1,-2.564507723E0,-3.960121572E-1,5.169693470E0,5.784397640E0
3.120022430E-1,-2.486740828E0,-4.336991012E-1,4.932205677E0,5.540634232E0
3.143793260E-1,-2.447259426E0,-3.978067636E-1,4.733003139E0,5.343093452E0
3.167564090E-1,-2.409572363E0,-3.942175210E-1,4.540979385E0,5.155767664E0
3.191332840E-1,-2.400001049E0,-4.019941986E-1,4.348955154E0,4.983474220E0
3.215101590E-1,-2.386840582E0,-3.828516304E-1,4.189234257E0,4.836658660E0
3.238870340E-1,-2.336591244E0,-4.319044948E-1,4.104289055E0,4.742508701E0
3.262639090E-1,-2.294716835E0,-4.372883439E-1,4.057629108E0,4.682018841E0
3.286407840E-1,-2.197807550E0,-4.648058116E-1,4.057030678E0,4.637445460E0
3.310176590E-1,-1.987239242E0,-5.096712112E-1,4.099503517E0,4.584191710E0
3.333945340E-1,-1.780858278E0,-5.659025311E-1,4.132404804E0,4.535247661E0
3.357714090E-1,-1.517049551E0,-5.988038778E-1,4.221537113E0,4.525635980E0
3.381482840E-1,-1.283151150E0,-6.035895348E-1,4.327419758E0,4.553829044E0
3.405251590E-1,-1.023529887E0,-6.604190469E-1,4.591826439E0,4.750645934E0
3.429020340E-1,-9.038887620E-1,-6.741777658E-1,4.885545731E0,5.013989194E0
3.452789090E-1,-8.398807645E-1,-6.580262184E-1,5.216353416E0,5.324353592E0
3.476559930E-1,-7.292127013E-1,-6.179464459E-1,5.547161102E0,5.628908000E0
3.500330760E-1,-6.107679605E-1,-5.569294691E-1,5.816951752E0,5.875383870E0
3.524101590E-1,-4.695914388E-1,-4.731806815E-1,6.070590973E0,6.107085298E0
3.547872430E-1,-3.230310678E-1,-3.188436031E-1,6.285944939E0,6.302310218E0
3.571641180E-1,-1.698904037E-1,-1.812563092E-1,6.476772785E0,6.481535490E0
3.595409930E-1,-8.973085321E-3,1.076770201E-2,6.657430649E0,6.657445404E0
3.619178680E-1,2.392822653E-1,1.902294010E-1,6.796812534E0,6.803683109E0
3.642947430E-1,5.557330847E-1,3.990031779E-1,6.893123627E0,6.926990409E0
3.666716180E-1,8.685946465E-1,5.449653864E-1,6.811768055E0,6.888514206E0
3.690484930E-1,1.148554921E0,4.881358147E-1,6.161518097E0,6.286633458E0
3.714253680E-1,1.338784218E0,1.387837082E-1,4.409972191E0,4.610798068E0
3.738022430E-1,1.470389485E0,1.076770201E-1,3.714857101E0,3.996724016E0
3.761793260E-1,1.600200176E0,1.980060786E-1,4.398007870E0,4.684263041E0
3.785564090E-1,1.652244091E0,3.314059377E-1,5.419145107E0,5.675110054E0
3.809334930E-1,1.689332843E0,4.342973232E-1,6.084349632E0,6.329436789E0
3.833105760E-1,1.781456470E0,5.641079545E-1,6.064609051E0,6.345966268E0
3.856874510E-1,1.915454507E0,6.011967063E-1,6.077769279E0,6.400756429E0
3.880643260E-1,2.091925144E0,4.438686073E-1,6.166304111E0,6.526597624E0
3.904412010E-1,2.441277266E0,2.979064286E-1,6.663413048E0,7.102792153E0
3.928180760E-1,2.965903759E0,-7.597211748E-2,8.018946648E0,8.550196618E0
3.951949510E-1,3.640679598E0,-5.976074338E-1,1.036810017E1,1.100496177E1
3.975718260E-1,4.144967079E0,-8.853443861E-1,1.170389366E1,1.244771921E1
3.999487010E-1,4.433301926E0,-1.074975610E0,1.116909790E1,1.206476218E1
4.023255760E-1,4.648656368E0,-1.330409408E0,1.041236782E1,1.148030482E1
4.047024510E-1,4.661816597E0,-1.710868239E0,1.024128056E1,1.138171479E1
4.070793260E-1,4.393820763E0,-2.076371908E0,1.057388306E1,1.163718111E1
4.094562010E-1,4.024129391E0,-2.529811859E0,1.145563793E1,1.240262899E1
4.118330760E-1,3.710071564E0,-2.918047190E0,1.279262829E1,1.363565066E1
4.142101590E-1,3.525824070E0,-3.315255880E0,1.381376553E1,1.463702411E1
4.165872430E-1,3.463012457E0,-3.704687595E0,1.439881039E1,1.526574289E1
4.189643260E-1,3.365504980E0,-4.034298897E0,1.491805267E1,1.581614640E1
4.213414090E-1,3.383451223E0,-4.387240410E0,1.527398491E1,1.624777633E1
4.237182840E-1,3.484548092E0,-4.695914268E0,1.549591923E1,1.656252393E1
4.260951590E-1,3.542573929E0,-5.085944653E0,1.557368660E1,1.676175341E1
4.284720340E-1,3.394817114E0,-5.487340450E0,1.568794346E1,1.696311464E1
4.308489090E-1,3.183650494E0,-5.855835438E0,1.583390522E1,1.717960982E1
4.332257840E-1,2.690729141E0,-6.212365627E0,1.578604889E1,1.717652030E1
4.356026590E-1,2.018345833E0,-6.533602238E0,1.559103394E1,1.702474720E1
4.379795340E-1,9.792626500E-1,-6.831508636E0,1.538764381E1,1.686440179E1
4.403564090E-1,-6.580262631E-2,-6.948158741E0,1.531825256E1,1.682052619E1
4.427334930E-1,-1.167099237E0,-7.055835724E0,1.505743504E1,1.666953173E1
4.451105760E-1,-1.953141451E0,-7.092326164E0,1.461057472E1,1.635801778E1
4.474876590E-1,-2.365305185E0,-7.065407276E0,1.394716454E1,1.581259141E1
4.498647430E-1,-2.485544443E0,-7.060621262E0,1.283809185E1,1.486091875E1
4.522416180E-1,-2.078764677E0,-6.921239376E0,1.149571800E1,1.357852531E1
4.546184930E-1,-1.336391449E0,-6.430710793E0,9.131011009E0,1.124790405E1
4.569953680E-1,-3.290131092E-1,-5.303092957E0,5.033302307E0,7.318823447E0
4.593722430E-1,7.184450030E-1,-3.485146284E0,-2.871387303E-1,3.569993907E0
4.617491180E-1,1.671984792E0,-1.272383451E0,-6.014957905E0,6.371358677E0
4.641259930E-1,2.520838737E0,7.316055298E-1,-9.156734467E0,9.525526793E0
4.665028680E-1,3.334996462E0,2.181057930E0,-9.307481766E0,1.012464478E1
4.688797430E-1,3.873381615E0,3.015554667E0,-8.682954788E0,9.974485397E0
4.712566180E-1,4.158127785E0,3.141776085E0,-7.960322857E0,9.514595295E0
4.736334930E-1,4.168296814E0,2.631506681E0,-7.509873867E0,8.983191596E0
4.760103680E-1,4.135395527E0,1.983649969E0,-6.878767014E0,8.267635635E0
4.783872430E-1,4.233501434E0,1.359721422E0,-5.818148136E0,7.322719746E0
4.807643260E-1,4.299902439E0,6.634100676E-1,-4.611567497E0,6.340018035E0
4.831414090E-1,4.414159775E0,1.190429255E-1,-3.144168854E0,5.420772594E0
4.855184930E-1,4.606183529E0,-2.673979402E-1,-1.594816327E0,4.881789373E0
4.878955760E-1,4.818546772E0,-5.694918036E-1,-2.482553422E-1,4.858430263E0
4.902724510E-1,5.179862976E0,-7.411768436E-1,8.333004713E-1,5.298557657E0
4.926493260E-1,5.627918720E0,-8.697910309E-1,1.890329838E0,6.000279365E0
4.950262010E-1,6.102295876E0,-1.058824062E0,2.976671457E0,6.871658920E0
4.974030760E-1,6.348158360E0,-1.290927768E0,3.961317778E0,7.593263303E0
4.997799510E-1,6.513861656E0,-1.477568030E0,4.886143684E0,8.275747765E0
5.021568260E-1,6.419344902E0,-1.790429592E0,5.641677380E0,8.731675140E0
5.045337010E-1,6.194419384E0,-2.069791555E0,6.373881340E0,9.125855134E0
5.069105760E-1,5.954539299E0,-2.337189436E0,7.043273449E0,9.514551676E0
5.092876590E-1,5.633302689E0,-2.601596355E0,7.599006653E0,9.810571079E0
5.116647430E-1,5.359922886E0,-2.758326292E0,8.212765694E0,1.018757369E1
5.140418260E-1,5.179264545E0,-2.928814888E0,8.813961983E0,1.063431539E1
5.164189090E-1,5.014758110E0,-3.068794966E0,9.430113792E0,1.111271108E1
5.187957840E-1,4.725226402E0,-3.270988464E0,9.961918831E0,1.150073723E1
5.211726590E-1,4.607978344E0,-3.397209883E0,1.032084274E1,1.180230038E1
5.235495340E-1,4.480560303E0,-3.497708559E0,1.052183914E1,1.195903360E1
5.259264090E-1,4.497310162E0,-3.577269793E0,1.060259724E1,1.205975647E1
5.283032840E-1,4.615755081E0,-3.592225075E0,1.041535854E1,1.194524883E1
5.306801590E-1,4.753342152E0,-3.616153240E0,9.995418549E0,1.164384893E1
5.330570340E-1,4.834099770E0,-3.518645763E0,9.408578873E0,1.114767891E1
5.354339090E-1,4.902295589E0,-3.409173965E0,8.793622971E0,1.062933554E1
5.378107840E-1,4.920241356E0,-3.314657450E0,8.081160545E0,1.002501296E1
5.401876590E-1,4.918447018E0,-3.194418192E0,7.332206726E0,9.389179097E0
5.425645340E-1,4.911268711E0,-3.135195971E0,6.698707104E0,8.878214403E0
5.449414090E-1,4.892724037E0,-3.168097258E0,6.122634888E0,8.453534569E0
5.473184930E-1,4.796412945E0,-3.295515060E0,5.524429321E0,8.024046110E0
5.496955760E-1,4.566701889E0,-3.555136204E0,5.036891460E0,7.672290085E0
5.520726590E-1,4.346562386E0,-3.977469444E0,4.610371113E0,7.481202413E0
5.544497430E-1,4.113860130E0,-4.445864677E0,4.249054909E0,7.398920564E0
5.568266180E-1,3.857230186E0,-4.993820667E0,3.844069481E0,7.388730591E0
5.592034930E-1,3.591028690E0,-5.575874805E0,3.458825111E0,7.479929014E0
5.615803680E-1,3.334398270E0,-6.166902065E0,2.966501951E0,7.612425811E0
5.639572430E-1,3.122035265E0,-6.767500877E0,2.613560438E0,7.897902917E0
5.663341180E-1,2.964108944E0,-7.295117855E0,2.244467735E0,8.187937577E0
5.687109930E-1,2.866601467E0,-7.760521889E0,1.967498422E0,8.503772927E0
5.710878680E-1,2.867199659E0,-8.142177582E0,1.746760488E0,8.807216465E0
5.734647430E-1,2.951546669E0,-8.493324280E0,1.589432478E0,9.130962746E0
5.758418260E-1,3.159124136E0,-8.764909744E0,1.563709617E0,9.447163378E0
5.782189090E-1,3.390629768E0,-8.977870941E0,1.553540111E0,9.721729462E0
5.805959930E-1,3.681357622E0,-9.085547447E0,1.546959877E0,9.924346387E0
5.829730760E-1,4.049253941E0,-9.165108681E0,1.488335729E0,1.012969979E1
5.853499510E-1,4.385445595E0,-9.223134995E0,1.411167145E0,1.030969179E1
5.877268260E-1,4.761118889E0,-9.272188187E0,1.281954765E0,1.050167296E1
5.901037010E-1,5.114060402E0,-9.382855415E0,1.166501045E0,1.074952623E1
5.924805760E-1,5.411966801E0,-9.483952522E0,1.124626637E0,1.097722757E1
5.948574510E-1,5.723033428E0,-9.667003632E0,1.031306505E0,1.128129709E1
5.972343260E-1,5.849255085E0,-9.910472870E0,9.469595551E-1,1.154677401E1
5.996112010E-1,5.993422508E0,-1.024606609E1,8.392825127E-1,1.189988987E1
6.019880760E-1,6.019743443E0,-1.061994553E1,6.526423693E-1,1.222483113E1
6.043649510E-1,6.010172367E0,-1.102433205E1,3.780659735E-1,1.256188691E1
6.067418260E-1,5.968297958E0,-1.140299606E1,2.632104978E-2,1.287049310E1
6.091187010E-1,5.975476265E0,-1.178764248E1,-3.116651475E-1,1.321937846E1
6.114955760E-1,5.975476265E0,-1.212203979E1,-5.994020700E-1,1.352809847E1
6.138726590E-1,6.052644730E0,-1.242353535E1,-7.980063558E-1,1.384252697E1
6.162497430E-1,6.202196121E0,-1.261914825E1,-8.757730722E-1,1.408819072E1
6.186268260E-1,6.411568165E0,-1.272144127E1,-9.176474810E-1,1.427534067E1
6.210039090E-1,6.653841496E0,-1.270768261E1,-8.817551732E-1,1.437137071E1
6.233807840E-1,7.003193855E0,-1.263948727E1,-8.105686903E-1,1.447267716E1
6.257576590E-1,7.377670288E0,-1.241097260E1,-7.268198729E-1,1.445650465E1
6.281345340E-1,7.878368378E0,-1.222313595E1,-5.258227587E-1,1.455164012E1
6.305114090E-1,8.340781212E0,-1.197308636E1,-4.145565331E-1,1.459778357E1
6.328882840E-1,8.831908226E0,-1.167218876E1,-3.361915946E-1,1.464088857E1
6.352651590E-1,9.244669914E0,-1.131805134E1,-4.079762697E-1,1.461946143E1
6.376420340E-1,9.659226418E0,-1.098664474E1,-4.139583111E-1,1.463483444E1
6.400189090E-1,1.006421185E1,-1.068993473E1,-3.433700502E-1,1.468608074E1
6.423959930E-1,1.048654556E1,-1.046859932E1,-3.625126183E-1,1.482196427E1
6.447730760E-1,1.089093208E1,-1.020658493E1,-3.284149170E-1,1.492965619E1
6.471501590E-1,1.123549843E1,-9.984052658E0,-3.379862010E-1,1.503435955E1
6.495272430E-1,1.162134171E1,-9.772287369E0,-1.405783296E-1,1.518462860E1
6.519041180E-1,1.194317627E1,-9.603593826E0,7.597211748E-2,1.532560751E1
6.542809930E-1,1.226620674E1,-9.481559753E0,1.022931710E-1,1.550387910E1
6.566578680E-1,1.251565838E1,-9.352945328E0,1.908276081E-1,1.562548259E1
6.590347430E-1,1.273041439E1,-9.247661591E0,3.194418252E-1,1.573800300E1
6.614116180E-1,1.287099266E1,-9.097511292E0,3.882354796E-1,1.576635312E1
6.637884930E-1,1.306840134E1,-8.970691681E0,6.945167780E-1,1.586627796E1
6.661653680E-1,1.324188042E1,-8.905488014E0,1.074377418E0,1.599404266E1
6.685422430E-1,1.344826126E1,-8.836693764E0,1.502692580E0,1.616171317E1
6.709193260E-1,1.363908863E1,-8.753543854E0,1.984248161E0,1.632747713E1
6.732964090E-1,1.382692528E1,-8.664410591E0,2.513660192E0,1.650982620E1
6.756734930E-1,1.397707558E1,-8.555537224E0,2.979662418E0,1.665635755E1
6.780505760E-1,1.415414429E1,-8.460422516E0,3.466601849E0,1.685039697E1
6.804274510E-1,1.430728436E1,-8.335995674E0,3.918246984E0,1.701587109E1
6.828043260E-1,1.452144241E1,-8.231309891E0,4.357928276E0,1.725161706E1
6.851812010E-1,1.469013596E1,-8.159524918E0,4.783252239E0,1.747161822E1
6.875580760E-1,1.492463303E1,-8.070392609E0,5.221138954E0,1.775207593E1
6.899349510E-1,1.520399475E1,-8.023134232E0,5.624329567E0,1.808770915E1
6.923118260E-1,1.556232071E1,-7.973483086E0,6.028118610E0,1.849595827E1
6.946887010E-1,1.586800289E1,-7.893921852E0,6.327221394E0,1.881864099E1
6.970655760E-1,1.622453308E1,-7.798807144E0,6.582654953E0,1.916737365E1
6.994424510E-1,1.648176193E1,-7.648657799E0,6.783652306E0,1.939506074E1
7.018193260E-1,1.672523117E1,-7.438687325E0,6.851847649E0,1.954521023E1
7.041962010E-1,1.696511269E1,-7.211967468E0,6.830312252E0,1.965911210E1
7.065730760E-1,1.716371727E1,-6.942176819E0,6.740581512E0,1.970336135E1
7.089501590E-1,1.735514259E1,-6.622136593E0,6.601199627E0,1.971368824E1
7.113272430E-1,1.761655807E1,-6.266802311E0,6.405586243E0,1.976480369E1
7.137043260E-1,1.788096619E1,-5.913262844E0,6.135795593E0,1.980766561E1
7.160814090E-1,1.819023705E1,-5.553143024E0,5.750551224E0,1.986934726E1
7.184582840E-1,1.847259140E1,-5.228915691E0,5.327619553E0,1.992389827E1
7.208351590E-1,1.875613976E1,-4.944169998E0,4.996213913E0,2.002997127E1
7.232120340E-1,1.900918198E1,-4.695914268E0,4.557728767E0,2.010406680E1
7.255889090E-1,1.924906158E1,-4.546961308E0,4.041477680E0,2.018749045E1
7.279657840E-1,1.945783615E1,-4.429114819E0,3.547957659E0,2.026850881E1
7.303426590E-1,1.969113541E1,-4.259822369E0,3.081955671E0,2.038100466E1
7.327195340E-1,1.991845322E1,-4.147958279E0,2.633301258E0,2.051547250E1
7.350964090E-1,2.026062775E1,-4.054637909E0,2.298904419E0,2.078985538E1
7.374734930E-1,2.064706802E1,-3.932604074E0,2.069193363E0,2.111985686E1
7.398505760E-1,2.112024879E1,-3.765704632E0,1.913659930E0,2.153851283E1
7.422276590E-1,2.169991112E1,-3.573082447E0,1.801197290E0,2.206575112E1
7.446047430E-1,2.225624084E1,-3.322434187E0,1.677966833E0,2.256533621E1
7.469816180E-1,2.283530426E1,-3.015554667E0,1.534995675E0,2.308464646E1
7.493584930E-1,2.345444679E1,-2.700300455E0,1.366899967E0,2.364891356E1
7.517353680E-1,2.410529518E1,-2.292922258E0,1.202393413E0,2.424393735E1
7.541122430E-1,2.474357986E1,-1.830509305E0,1.026520967E0,2.483242344E1
7.564891180E-1,2.536631203E1,-1.308275819E0,7.902296782E-1,2.541231659E1
7.588659930E-1,2.598724937E1,-7.824530005E-1,5.335994363E-1,2.600450136E1
7.612428680E-1,2.654118919E1,-2.153540403E-1,2.285145670E-1,2.654304655E1
7.636197430E-1,2.702513695E1,3.720839322E-1,-8.494520187E-2,2.702783175E1
7.659968260E-1,2.743012238E1,9.349954724E-1,-4.408775866E-1,2.744959386E1
7.683739090E-1,2.769273376E1,1.462014675E0,-8.512466550E-1,2.774436179E1
7.707509930E-1,2.784826851E1,1.939382792E0,-1.259222865E0,2.794410326E1
7.731280760E-1,2.801636314E1,2.423331022E0,-1.671984792E0,2.817063489E1
7.755049510E-1,2.806242561E1,2.854039192E0,-2.087139606E0,2.828429640E1
7.778818260E-1,2.801875687E1,3.153141975E0,-2.468196630E0,2.830344564E1
7.802587010E-1,2.787997246E1,3.413361549E0,-2.838485956E0,2.823120443E1
7.826355760E-1,2.765624428E1,3.559323788E0,-3.219542980E0,2.806959370E1
7.850124510E-1,2.729433060E1,3.685544968E0,-3.646661758E0,2.778240210E1
7.873893260E-1,2.684567451E1,3.708875179E0,-3.999004841E0,2.739412410E1
7.897662010E-1,2.627379036E1,3.725026608E0,-4.383651257E0,2.689617596E1
7.921430760E-1,2.570489693E1,3.708276987E0,-4.673780918E0,2.638820328E1
7.945201590E-1,2.507319260E1,3.676572084E0,-4.937589645E0,2.581786127E1
7.968972430E-1,2.437329102E1,3.657429457E0,-5.168497086E0,2.518228479E1
7.992743260E-1,2.371526527E1,3.626322746E0,-5.459224701E0,2.460421017E1
8.016514090E-1,2.306621170E1,3.571886063E0,-5.746961594E0,2.403822081E1
8.040282840E-1,2.247997093E1,3.527618885E0,-6.066403389E0,2.354982884E1
8.064051590E-1,2.205883408E1,3.541377544E0,-6.378068924E0,2.323388213E1
8.087820340E-1,2.169811630E1,3.600599766E0,-6.655037880E0,2.297960180E1
8.111589090E-1,2.142892265E1,3.689134359E0,-6.918248653E0,2.281820770E1
8.135357840E-1,2.119562340E1,3.783052683E0,-7.199405193E0,2.270236494E1
8.159126590E-1,2.094138527E1,3.901497364E0,-7.425527096E0,2.255885084E1
8.182895340E-1,2.066501427E1,3.977469444E0,-7.606184959E0,2.237670949E1
8.206664090E-1,2.041436577E1,4.066602230E0,-7.728816986E0,2.220401305E1
8.230432840E-1,2.015295029E1,4.204787731E0,-7.837092400E0,2.202820152E1
8.254201590E-1,1.993759727E1,4.348356724E0,-7.944769382E0,2.189829564E1
8.277970340E-1,1.975514412E1,4.482953072E0,-7.996813297E0,2.177869625E1
8.301739090E-1,1.954577255E1,4.575077057E0,-7.967501163E0,2.159744498E1
8.325509930E-1,1.935673904E1,4.600799561E0,-7.823333740E0,2.137885062E1
8.349280760E-1,1.911087608E1,4.606781960E0,-7.572685242E0,2.106640896E1
8.373051590E-1,2.594268417E1,4.275076866E0,-4.809573650E0,2.672884478E1
8.396822430E-1,2.541357040E1,4.380660057E0,-5.174180031E0,2.630231705E1
8.420591180E-1,2.484168625E1,4.454837322E0,-5.542076111E0,2.583930260E1
8.444359930E-1,2.423809624E1,4.499403954E0,-5.907280922E0,2.535006732E1
8.468128680E-1,2.361357117E1,4.516452789E0,-6.262914181E0,2.484397680E1
8.491897430E-1,2.298007011E1,4.509274483E0,-6.602396011E0,2.433123120E1
8.515666180E-1,2.234896278E1,4.481756687E0,-6.918846607E0,2.382084631E1
8.539434930E-1,2.173101616E1,4.436891556E0,-7.206284523E0,2.332066909E1
8.563203680E-1,2.113580322E1,4.379164696E0,-7.458727360E0,2.283707239E1
8.586972430E-1,2.057139587E1,4.311567307E0,-7.671987534E0,2.237479237E1
8.610743260E-1,2.004437637E1,4.237389565E0,-7.842476368E0,2.193711308E1
8.634514090E-1,1.955893135E1,4.159623146E0,-7.968099594E0,2.152544707E1
8.658284930E-1,1.911685753E1,4.079463482E0,-8.048258781E0,2.113931724E1
8.682055760E-1,1.871845245E1,3.998406649E0,-8.083553314E0,2.077766956E1
8.705824510E-1,1.836042786E1,3.916452408E0,-8.076673508E0,2.043713692E1
8.729593260E-1,1.803859329E1,3.832703590E0,-8.030611992E0,2.011395520E1
8.753362010E-1,1.774457359E1,3.745066643E0,-7.950751305E0,1.980176413E1
8.777130760E-1,1.747029686E1,3.651148319E0,-7.843074322E0,1.949502427E1
8.800899510E-1,1.720439529E1,3.547359467E0,-7.715357304E0,1.918597704E1
8.824668260E-1,1.693490410E1,3.429512978E0,-7.574779034E0,1.886610223E1
8.848437010E-1,1.665045547E1,3.293421268E0,-7.430013180E0,1.852807025E1
8.872205760E-1,1.633879089E1,3.134896755E0,-7.289135933E0,1.816356706E1
8.895976590E-1,1.598884106E1,2.949752092E0,-7.160222530E0,1.776549640E1
8.919747430E-1,1.559073544E1,2.734398127E0,-7.050751209E0,1.732804251E1
8.943518260E-1,1.513669682E1,2.486142635E0,-6.966403961E0,1.684729295E1
8.967289090E-1,1.462164211E1,2.203490496E0,-6.913163662E0,1.632297829E1
8.991057840E-1,1.404257870E1,1.885544300E0,-6.894320011E0,1.575693315E1
9.014826590E-1,1.340190029E1,1.534397483E0,-6.912266254E0,1.515733261E1
9.038595340E-1,1.270289707E1,1.152742267E0,-6.968198776E0,1.453438003E1
9.062364090E-1,1.195424271E1,7.450651526E-1,-7.060920715E0,1.390379956E1
9.086132840E-1,1.116820049E1,3.191427290E-1,-7.188039303E0,1.328527242E1
9.109901590E-1,1.035733318E1,-1.181456149E-1,-7.345666409E0,1.269831186E1
9.133670340E-1,9.538688660E0,-5.575276613E-1,-7.529016495E0,1.216484722E1
9.157439090E-1,8.732905388E0,-9.876375198E-1,-7.731509209E0,1.170535343E1
9.181209930E-1,7.962715626E0,-1.395912886E0,-7.946564198E0,1.133584119E1
9.204980760E-1,7.250252724E0,-1.769492388E0,-8.165806770E0,1.106244404E1
9.228751590E-1,6.614659309E0,-2.099402666E0,-8.382356644E0,1.088233028E1
9.252522430E-1,6.079863071E0,-2.372184515E0,-8.589634895E0,1.078766990E1
9.276291180E-1,5.664409637E0,-2.577368975E0,-8.779266357E0,1.076122136E1
9.300059930E-1,5.381757259E0,-2.708974361E0,-8.945567131E0,1.078540795E1
9.323828680E-1,5.244469166E0,-2.760719061E0,-9.083752632E0,1.084622462E1
9.347597430E-1,5.261518002E0,-2.727817774E0,-9.189037323E0,1.093448528E1
9.371366180E-1,5.436193943E0,-2.609672308E0,-9.258130074E0,1.104878123E1
9.395134930E-1,5.766104221E0,-2.408974171E0,-9.289237022E0,1.119558122E1
9.418903680E-1,6.243173599E0,-2.130509377E0,-9.280861855E0,1.138642541E1
9.442672430E-1,6.853642464E0,-1.783849239E0,-9.233603477E0,1.163675068E1
9.466443260E-1,7.579265594E0,-1.379761338E0,-9.147461891E0,1.195930882E1
9.490214090E-1,8.395816803E0,-9.332008362E-1,-9.023932457E0,1.236090452E1
9.513984930E-1,9.274580956E0,-4.609174728E-1,-8.866005898E0,1.283886122E1
9.537755760E-1,1.018624592E1,1.974078640E-2,-8.674879074E0,1.337959351E1
9.561524510E-1,1.109701443E1,4.896313250E-1,-8.452944756E0,1.395835746E1
9.585293260E-1,1.197248840E1,9.293124676E-1,-8.201698303E0,1.454207534E1
9.609062010E-1,1.277886963E1,1.320538998E0,-7.922635555E0,1.509342527E1
9.632830760E-1,1.348325634E1,1.645364642E0,-7.615457058E0,1.557243117E1
9.656599510E-1,1.405783272E1,1.889731646E0,-7.278966427E0,1.594293256E1
9.680368260E-1,1.447508144E1,2.039881229E0,-6.914360046E0,1.617088350E1
9.704137010E-1,1.471376514E1,2.085345030E0,-6.517749786E0,1.622727984E1
9.727905760E-1,1.475982761E1,2.021636009E0,-6.089135647E0,1.609400809E1
9.751676590E-1,1.460429382E1,1.845165372E0,-5.625525951E0,1.575869841E1
9.775447430E-1,1.424267864E1,1.556830287E0,-5.125426292E0,1.521668854E1
9.799218260E-1,1.368186092E1,1.163809061E0,-4.587040901E0,1.447717908E1
9.822989090E-1,1.293081379E1,6.741777658E-1,-4.007080555E0,1.355423017E1
9.846757840E-1,1.200838089E1,1.016949639E-1,-3.386442184E0,1.247716090E1
9.870526590E-1,1.093699455E1,-5.380859971E-1,-2.724228621E0,1.128400673E1
9.894295340E-1,9.744471550E0,-1.226620674E0,-2.022234201E0,1.002740022E1
9.918064090E-1,8.462815285E0,-1.944467545E0,-1.284048438E0,8.777754665E0
9.941832840E-1,7.125825882E0,-2.670090914E0,-5.138586760E-1,7.626980446E0
9.965601590E-1,5.768796444E0,-3.383152008E0,2.817548811E-1,6.693587658E0
9.989370340E-1,4.427021027E0,-4.063013077E0,1.095015407E0,6.107835064E0
1.001313909E0,3.135195971E0,-4.690829754E0,1.916650891E0,5.958765660E0
1.003690993E0,1.924726725E0,-5.250451088E0,2.735893488E0,6.225505824E0
1.006068076E0,8.249256015E-1,-5.727519989E0,3.541078329E0,6.784115506E0
1.008445159E0,-1.393819153E-1,-6.111567974E0,4.319941998E0,7.485491920E0
1.010822243E0,-9.490532875E-1,-6.395416737E0,5.059025288E0,8.209494152E0
1.013199118E0,-1.589432478E0,-6.575775623E0,5.746662617E0,8.876443651E0
1.015575993E0,-2.052144527E0,-6.652346134E0,6.369095802E0,9.435591534E0
1.017952868E0,-2.334497690E0,-6.629614353E0,6.915855408E0,9.860563978E0
1.020329743E0,-2.439482689E0,-6.514160633E0,7.375576496E0,1.013826875E1
1.022706618E0,-2.375474691E0,-6.316752911E0,7.740182877E0,1.026911283E1
1.025083493E0,-2.155334949E0,-6.049952984E0,8.001897812E0,1.026049553E1
1.027460368E0,-1.796112537E0,-5.728417397E0,8.155038834E0,1.012647246E1
1.029837243E0,-1.317847013E0,-5.367998600E0,8.197212219E0,9.886678810E0
1.032214118E0,-7.432705164E-1,-4.986044407E0,8.127222061E0,9.563724605E0
1.034590993E0,-9.631111473E-2,-4.598706245E0,7.945367813E0,9.180754035E0
1.036967868E0,5.988038778E-1,-4.222733974E0,7.656135082E0,8.763929068E0
1.039344743E0,1.317248821E0,-3.872484446E0,7.264609337E0,8.337015596E0
1.041721409E0,2.036890268E0,-3.561118364E0,6.777969360E0,7.922837536E0
1.044098076E0,2.736192703E0,-3.299702406E0,6.204588890E0,7.541333421E0
1.046474743E0,3.396910906E0,-3.097508907E0,5.554937840E0,7.210471520E0
1.048851409E0,4.003192425E0,-2.960519791E0,4.840082169E0,6.943819008E0
1.051228545E0,4.543072701E0,-2.891128063E0,4.070191383E0,6.750154734E0
1.053605836E0,5.008177757E0,-2.889931440E0,3.256930828E0,6.636350397E0
1.055983128E0,5.393422127E0,-2.954238653E0,2.412862539E0,6.605939289E0
1.058360420E0,5.698207855E0,-3.076870918E0,1.550549030E0,6.658897034E0
1.060737503E0,5.924030781E0,-3.253640652E0,6.825526357E-1,6.793099166E0
1.063114586E0,6.077470303E0,-3.473181963E0,-1.794617027E-1,7.002202848E0
1.065491670E0,6.166603088E0,-3.727120399E0,-1.024427176E0,7.277902937E0
1.067868753E0,6.201299191E0,-4.005286217E0,-1.840977907E0,7.608392010E0
1.070245628E0,6.193522453E0,-4.296911240E0,-2.621038198E0,7.980789924E0
1.072622503E0,6.155835152E0,-4.591228485E0,-3.356831074E0,8.381050070E0
1.074999378E0,6.101697922E0,-4.878067970E0,-4.039383888E0,8.794480476E0
1.077376253E0,6.043971062E0,-5.149055004E0,-4.661517620E0,9.207176557E0
1.079753128E0,5.994618893E0,-5.397011280E0,-5.217549801E0,9.606560901E0
1.082130003E0,5.965007782E0,-5.616852283E0,-5.701199055E0,9.981684130E0
1.084506878E0,5.964110374E0,-5.805884838E0,-6.109175205E0,1.032477278E1
1.086883753E0,5.999404430E0,-5.963212967E0,-6.439085960E0,1.063083207E1
1.089260836E0,6.076572895E0,-6.089434624E0,-6.690331936E0,1.089800411E1
1.091637920E0,6.196214199E0,-6.188138485E0,-6.862316132E0,1.112553419E1
1.094015003E0,6.358926296E0,-6.263512135E0,-6.956234455E0,1.131621517E1
1.096392086E0,6.563213348E0,-6.321238995E0,-6.976274490E0,1.147615953E1
1.098768961E0,6.803392887E0,-6.368198395E0,-6.926324368E0,1.161094634E1
1.101145836E0,7.074080944E0,-6.411867142E0,-6.812067032E0,1.172855143E1
1.103522711E0,7.366902828E0,-6.459424496E0,-6.641578197E0,1.183663732E1
1.105899586E0,7.673782349E0,-6.517749786E0,-6.423233509E0,1.194260970E1
1.108276461E0,7.984251022E0,-6.593422890E0,-6.166902065E0,1.205206086E1
1.110653336E0,8.289036751E0,-6.691528320E0,-5.884250164E0,1.217000746E1
1.113030211E0,8.577970505E0,-6.815955162E0,-5.586044312E0,1.229807765E1
1.115407086E0,8.841778755E0,-6.968796730E0,-5.284847736E0,1.243667138E1
1.117784170E0,9.072686195E0,-7.150651455E0,-4.992923737E0,1.258470256E1
1.120161253E0,9.263513565E0,-7.359425068E0,-4.722534657E0,1.273876581E1
1.122538336E0,9.409774780E0,-7.592725277E0,-4.485046864E0,1.289608405E1
1.124915420E0,9.508479118E0,-7.845168114E0,-4.291527271E0,1.305277918E1
1.127292295E0,9.557232857E0,-8.110771179E0,-4.150949001E0,1.320438134E1
1.129669170E0,9.558428764E0,-8.382058144E0,-4.071387768E0,1.334910699E1
1.132046045E0,9.514162064E0,-8.651249886E0,-4.059423447E0,1.348489240E1
1.134422920E0,9.429515839E0,-8.909376144E0,-4.118945122E0,1.361096841E1
1.136799795E0,9.311071396E0,-9.148957253E0,-4.249652863E0,1.372803769E1
1.139176670E0,9.167501450E0,-9.361918449E0,-4.450351238E0,1.383814388E1
1.141553545E0,9.007481575E0,-9.541679382E0,-4.718048096E0,1.394411516E1
1.143930420E0,8.841180801E0,-9.681958199E0,-5.044668198E0,1.404832623E1
1.146307503E0,8.679664612E0,-9.779167175E0,-5.421537876E0,1.415492004E1
1.148684586E0,8.532505989E0,-9.830313683E0,-5.837889194E0,1.426603224E1
1.151061670E0,8.409873962E0,-9.834799767E0,-6.279364586E0,1.438331277E1
1.153438753E0,8.321041107E0,-9.793523788E0,-6.731907368E0,1.450763282E1
1.155815628E0,8.273782730E0,-9.708877563E0,-7.179963589E0,1.463795277E1
1.158192503E0,8.275278091E0,-9.584750175E0,-7.607082367E0,1.477211446E1
1.160569378E0,8.330612183E0,-9.426823616E0,-7.996214867E0,1.490649372E1
1.162946253E0,8.444271088E0,-9.240781784E0,-8.333902359E0,1.503834069E1
1.165323128E0,8.618349075E0,-9.033802986E0,-8.605786324E0,1.516394063E1
1.167700003E0,8.853444099E0,-8.813663483E0,-8.799305916E0,1.528044243E1
1.170076878E0,9.149555206E0,-8.587541580E0,-8.904889107E0,1.538691915E1
1.172453753E0,9.504291534E0,-8.362317085E0,-8.915059090E0,1.548348098E1
1.174830836E0,9.914959908E0,-8.144868851E0,-8.826225281E0,1.557393885E1
1.177207920E0,1.037707329E1,-7.940881252E0,-8.636893272E0,1.566324266E1
1.179585003E0,1.088614655E1,-7.754539967E0,-8.349754333E0,1.575942493E1
1.181962086E0,1.143619633E1,-7.589435101E0,-7.969594955E0,1.587137534E1
1.184338961E0,1.202094269E1,-7.447361469E0,-7.505387306E0,1.600928151E1
1.186715836E0,1.263320637E1,-7.329215527E0,-6.967600346E0,1.618217408E1
1.189092711E0,1.326550961E1,-7.234699249E0,-6.369993210E0,1.639790937E1
1.191469586E0,1.391037560E1,-7.162615299E0,-5.728118420E0,1.666172103E1
1.193846461E0,1.455942822E1,-7.109973431E0,-5.058726311E0,1.697407977E1
1.196223336E0,1.520369625E1,-7.073781967E0,-4.378865242E0,1.733104820E1
1.198600211E0,1.583420467E1,-7.051050186E0,-3.706781387E0,1.772511141E1
1.200977086E0,1.644108391E1,-7.036693096E0,-3.060121059E0,1.814355618E1
1.203354170E0,1.701536179E1,-7.027122021E0,-2.454138756E0,1.857217751E1
1.205731253E0,1.754716682E1,-7.018746853E0,-1.904387712E0,1.899454036E1
1.208108336E0,1.802722740E1,-7.007979393E0,-1.423131227E0,1.939376202E1
1.210485420E0,1.844626999E1,-6.991528511E0,-1.019940615E0,1.975314219E1
1.212862295E0,1.879622078E1,-6.967002392E0,-7.016952634E-1,2.005815082E1
1.215239170E0,1.906840324E1,-6.933502674E0,-4.728815854E-1,2.029534623E1
1.217616045E0,1.925624084E1,-6.889235497E0,-3.340978622E-1,2.045424158E1
1.219992920E0,1.935344887E1,-6.834798813E0,-2.832503915E-1,2.052682851E1
1.222369795E0,1.935464478E1,-6.770192623E0,-3.146561682E-1,2.050699371E1
1.224746670E0,1.925713730E1,-6.697211266E0,-4.214358926E-1,2.039283168E1
1.227123545E0,1.905883217E1,-6.617351055E0,-5.931209326E-1,2.018366198E1
1.229500420E0,1.876122475E1,-6.533303261E0,-8.174480200E-1,1.988305376E1
1.231877503E0,1.836610985E1,-6.447759628E0,-1.082154036E0,1.949509304E1
1.234254586E0,1.787917137E1,-6.364310265E0,-1.373181105E0,1.902773871E1
1.236631670E0,1.730818367E1,-6.285944939E0,-1.677368641E0,1.849053518E1
1.239008753E0,1.666271973E1,-6.216553211E0,-1.981257200E0,1.789461211E1
1.241385628E0,1.595534134E1,-6.160022736E0,-2.272284269E0,1.725346554E1
1.243762503E0,1.520040607E1,-6.119643688E0,-2.539382935E0,1.658164194E1
1.246139378E0,1.441406441E1,-6.099005699E0,-2.772683144E0,1.589499591E1
1.248516253E0,1.361336613E1,-6.101099491E0,-2.963809967E0,1.520957994E1
1.250893128E0,1.281655598E1,-6.129514217E0,-3.106781006E0,1.454259743E1
1.253270003E0,1.204217911E1,-6.186643124E0,-3.197110176E0,1.391079237E1
1.255646878E0,1.130758286E1,-6.274878502E0,-3.231507063E0,1.332959745E1
1.258023753E0,1.063131142E1,-6.396014690E0,-3.209074259E0,1.281530117E1
1.260400836E0,1.002891827E1,-6.551249504E0,-3.128914595E0,1.238096031E1
1.262777920E0,9.515357971E0,-6.740880489E0,-2.991028309E0,1.203859450E1
1.265155003E0,9.101998329E0,-6.965506554E0,-2.797508717E0,1.179791126E1
1.267532086E0,8.799305916E0,-7.223333359E0,-2.550150633E0,1.166651609E1
1.269908961E0,8.612964630E0,-7.514061451E0,-2.253141642E0,1.164993247E1
1.272285836E0,8.546564102E0,-7.834400654E0,-1.911267042E0,1.175051204E1
1.274662711E0,8.599205971E0,-8.183154106E0,-1.529013634E0,1.196863556E1
1.277039586E0,8.767900467E0,-8.554939270E0,-1.113559842E0,1.230053170E1
1.279416461E0,9.045766830E0,-8.946166039E0,-6.702894568E-1,1.274005778E1
1.281793336E0,9.423234940E0,-9.352047920E0,-2.066800594E-1,1.327783392E1
1.284170211E0,9.888040543E0,-9.766903877E0,2.691925466E-1,1.390101513E1
1.286547086E0,1.042522907E1,-1.018475056E1,7.480561733E-1,1.459363331E1
1.288924170E0,1.101864910E1,-1.059960651E1,1.218844056E0,1.533779212E1
1.291301253E0,1.165095234E1,-1.100429249E1,1.669592023E0,1.611293521E1
1.293678336E0,1.230329609E1,-1.139192963E1,2.087438583E0,1.689688004E1
1.296055420E0,1.295713425E1,-1.175593758E1,2.459223509E0,1.766740435E1
1.298432295E0,1.359512138E1,-1.208913803E1,2.771486759E0,1.840260097E1
1.300809170E0,1.419990730E1,-1.238525009E1,3.010170937E0,1.908121894E1
1.303186045E0,1.475623798E1,-1.263829136E1,3.162414312E0,1.968435501E1
1.305562920E0,1.525065517E1,-1.284347534E1,3.216850996E0,2.019617470E1
1.307939795E0,1.567238998E1,-1.299571896E1,3.163610697E0,2.060390622E1
1.310316670E0,1.601276970E1,-1.309173107E1,2.995215654E0,2.089912756E1
1.312693545E0,1.626581001E1,-1.312852097E1,2.707777977E0,2.107763506E1
1.315070420E0,1.642852211E1,-1.310429287E1,2.300100803E0,2.114022928E1
1.317447503E0,1.650000763E1,-1.301845074E1,1.776072621E0,2.109229113E1
1.319824586E0,1.648355675E1,-1.287039471E1,1.142572761E0,2.094421580E1
1.322201670E0,1.638275909E1,-1.266251850E1,4.118646085E-1,2.070999282E1
1.324578753E0,1.620539093E1,-1.239661598E1,-3.996013701E-1,2.040711798E1
1.326955628E0,1.595922947E1,-1.207627678E1,-1.272383451E0,2.005373845E1
1.329332503E0,1.565414524E1,-1.170598793E1,-2.182254314E0,1.966836675E1
1.331709378E0,1.530090427E1,-1.129113197E1,-3.102593660E0,1.926741862E1
1.334086253E0,1.490967751E1,-1.083739281E1,-4.005585194E0,1.886245686E1
1.336463128E0,1.449183083E1,-1.035165024E1,-4.861916542E0,1.846098740E1
1.338840003E0,1.405783272E1,-9.840482712E0,-5.642574787E0,1.806367656E1
1.341216878E0,1.361665630E1,-9.311968803E0,-6.320940018E0,1.766579674E1
1.343593753E0,1.317697525E1,-8.773283958E0,-6.872186661E0,1.725775587E1
1.345970836E0,1.274566936E1,-8.232506752E0,-7.275377274E0,1.682728051E1
1.348347920E0,1.232812119E1,-7.696813107E0,-7.513761997E0,1.636093284E1
1.350725003E0,1.192732334E1,-7.173682213E0,-7.577171803E0,1.584728024E1
1.353102086E0,1.154566860E1,-6.669693947E0,-7.460222721E0,1.527881553E1
1.355478961E0,1.118255711E1,-6.190830231E0,-7.164709091E0,1.465295256E1
1.357855836E0,1.083709335E1,-5.741877079E0,-6.697809696E0,1.397399011E1
1.360232711E0,1.050658512E1,-5.327320576E0,-6.072983742E0,1.325329419E1
1.362609586E0,1.018684387E1,-4.950450897E0,-5.309673309E0,1.250885218E1
1.364986461E0,9.873085022E0,-4.612763882E0,-4.431208611E0,1.176397077E1
1.367363336E0,9.559925079E0,-4.315455437E0,-3.465106249E0,1.104636974E1
1.369740211E0,9.241978645E0,-4.058825493E0,-2.441277266E0,1.038499246E1
1.372117086E0,8.913862228E0,-3.841078520E0,-1.391725421E0,9.805494565E0
1.374494170E0,8.570193291E0,-3.660719633E0,-3.478565812E-1,9.325775328E0
1.376871253E0,8.207381248E0,-3.514757395E0,6.592226624E-1,8.952608615E0
1.379248336E0,7.821837902E0,-3.399901867E0,1.600798368E0,8.677732209E0
1.381625420E0,7.411468983E0,-3.311666489E0,2.451147795E0,8.479689436E0
1.384002295E0,6.975377083E0,-3.246163130E0,3.190230846E0,8.328927504E0
1.386379170E0,6.514160633E0,-3.197409153E0,3.804588079E0,8.193448877E0
1.388756045E0,6.029314995E0,-3.161217928E0,4.279862404E0,8.041340702E0
1.391132920E0,5.523232937E0,-3.132204771E0,4.610969067E0,7.847155187E0
1.393509795E0,5.000699997E0,-3.104986429E0,4.798506737E0,7.594314195E0
1.395886670E0,4.465904236E0,-3.075076103E0,4.844867706E0,7.271391667E0
1.398263545E0,3.925126553E0,-3.037389278E0,4.756931305E0,6.874645265E0
1.400640420E0,3.384049416E0,-2.988037348E0,4.546662331E0,6.407206567E0
1.403017503E0,2.849552631E0,-2.922832966E0,4.229014874E0,5.877709549E0
1.405394586E0,2.328216314E0,-2.837887764E0,3.820739508E0,5.298325070E0
1.407771670E0,1.826321840E0,-2.729911566E0,3.339184046E0,4.683803872E0
1.410148753E0,1.350449324E0,-2.596810818E0,2.801995277E0,4.051952287E0
1.412525628E0,9.059824944E-1,-2.436491728E0,2.225923300E0,3.422284435E0
1.414902503E0,4.977070987E-1,-2.247458696E0,1.626222134E0,2.818400500E0
1.417279378E0,1.301097274E-1,-2.029711723E0,1.016351461E0,2.273681709E0
1.419656253E0,-1.947159469E-1,-1.782951951E0,4.085744619E-1,1.839501305E0
1.422033128E0,-4.740779996E-1,-1.508076429E0,-1.884347796E-1,1.592027680E0
1.424410003E0,-7.073782086E-1,-1.206580877E0,-7.671987414E-1,1.595247709E0
1.426786878E0,-8.946165442E-1,-8.808578253E-1,-1.322034478E0,1.823190728E0
1.429163753E0,-1.036690354E0,-5.338985324E-1,-1.849651933E0,2.186546777E0
1.431540836E0,-1.136291623E0,-1.698904037E-1,-2.347658157E0,2.613717702E0
1.433917920E0,-1.195813060E0,2.066800594E-1,-2.814557552E0,3.065031768E0
1.436295003E0,-1.219442248E0,5.895316601E-1,-3.249752283E0,3.520721073E0
1.438672086E0,-1.212562919E0,9.717850685E-1,-3.652942896E0,3.969718737E0
1.441048961E0,-1.180558920E0,1.345364571E0,-4.022933006E0,4.403148324E0
1.443425836E0,-1.128215909E0,1.702194214E0,-4.356133461E0,4.811053420E0
1.445802711E0,-1.062712312E0,2.031805515E0,-4.650749683E0,5.185273737E0
1.448179586E0,-9.891330600E-1,2.326122761E0,-4.902295589E0,5.515590028E0
1.450556670E0,-9.128618240E-1,2.578565598E0,-5.106283665E0,5.792792946E0
1.452933753E0,-8.389834166E-1,2.779263496E0,-5.255535603E0,6.004069722E0
1.455310836E0,-7.722834945E-1,2.922234535E0,-5.344967365E0,6.140403294E0
1.457687920E0,-7.172485590E-1,3.001796007E0,-5.367400169E0,6.191462617E0
1.460064795E0,-6.762714982E-1,3.013760090E0,-5.316253662E0,6.148385643E0
1.462441670E0,-6.517450809E-1,2.955136061E0,-5.184050083E0,6.002664080E0
1.464818545E0,-6.442674994E-1,2.825624466E0,-4.966303349E0,5.750078537E0
1.467195420E0,-6.532405615E-1,2.627917528E0,-4.660321236E0,5.389922800E0
1.469572295E0,-6.771687865E-1,2.368296146E0,-4.267300129E0,4.927193379E0
1.471949170E0,-7.142575383E-1,2.056032896E0,-3.792025566E0,4.372286930E0
1.474326045E0,-7.609176040E-1,1.702194214E0,-3.240479946E0,3.738605492E0
1.476702920E0,-8.114659786E-1,1.319641709E0,-2.621636391E0,3.045145093E0
1.479080003E0,-8.617152572E-1,9.245268703E-1,-1.947458506E0,2.321615332E0
1.481457086E0,-9.050851464E-1,5.333003402E-1,-1.230509043E0,1.617943410E0
1.483834170E0,-9.340981245E-1,1.636092514E-1,-4.857429862E-1,1.065482774E0
1.486211253E0,-9.418748021E-1,-1.663011760E-1,2.694916427E-1,9.936850454E-1
1.488588128E0,-9.221340418E-1,-4.384847581E-1,1.017248750E0,1.441317138E0
1.490965003E0,-8.688937426E-1,-6.361917257E-1,1.738086581E0,2.044666528E0
1.493341878E0,-7.773682475E-1,-7.453642488E-1,2.414956331E0,2.644216961E0
1.495718753E0,-6.427719593E-1,-7.537391186E-1,3.031706333E0,3.189439095E0
1.498095628E0,-4.618147612E-1,-6.538388133E-1,3.574577808E0,3.663111324E0
1.500472503E0,-2.321037948E-1,-4.411766827E-1,4.033401489E0,4.064091117E0
1.502849378E0,4.666004330E-2,-1.160518974E-1,4.399802685E0,4.401580269E0
1.505226253E0,3.732803464E-1,3.161516786E-1,4.670191765E0,4.695740753E0
1.507603336E0,7.444669604E-1,8.464609981E-1,4.842175961E0,4.971659211E0
1.509980420E0,1.155434251E0,1.459920883E0,4.917549610E0,5.258202303E0
1.512357503E0,1.599003673E0,2.138585329E0,4.900500774E0,5.580794549E0
1.514734586E0,2.067099571E0,2.859722137E0,4.795515537E0,5.953812275E0
1.517111461E0,2.549552441E0,3.598506212E0,4.609174728E0,6.379181474E0
1.519488336E0,3.035893679E0,4.327419758E0,4.350450516E0,6.846139925E0
1.521865211E0,3.515056372E0,5.018048286E0,4.028615952E0,7.332542287E0
1.524242086E0,3.975674868E0,5.641677380E0,3.651148319E0,7.808034219E0
1.526618961E0,4.406980991E0,6.170491219E0,3.226422310E0,8.240524514E0
1.528995836E0,4.798805714E0,6.579065800E0,2.762812853E0,8.599173096E0
1.531372711E0,5.142175674E0,6.844369888E0,2.265404940E0,8.855474543E0
1.533749586E0,5.429314613E0,6.947261333E0,1.737787485E0,8.986757065E0
1.536126670E0,5.654240131E0,6.873682022E0,1.182353497E0,8.978635520E0
1.538503753E0,5.814260006E0,6.613761902E0,6.005984545E-1,8.826561302E0
1.540880836E0,5.906981945E0,6.164210320E0,-6.879365072E-3,8.537562409E0
1.543257920E0,5.934499264E0,5.526822090E0,-6.394818425E-1,8.134677680E0
1.545634795E0,5.899803162E0,4.708775997E0,-1.297209024E0,7.659177501E0
1.548011670E0,5.808876038E0,3.723531246E0,-1.978864312E0,7.177996220E0
1.550388545E0,5.669195175E0,2.588136673E0,-2.681756020E0,6.784544253E0
1.552765420E0,5.490630627E0,1.324427366E0,-3.402294636E0,6.593689507E0
1.555142295E0,5.283352375E0,-4.217349738E-2,-4.134199142E0,6.708740081E0
1.557519170E0,5.059025288E0,-1.484746456E0,-4.868197441E0,7.176179710E0
1.559896045E0,4.828716278E0,-2.974278450E0,-5.592923641E0,7.965150849E0
1.562272920E0,4.603790760E0,-4.481158733E0,-6.294918060E0,8.994535360E0
1.564650003E0,4.395017147E0,-5.976971626E0,-6.958029270E0,1.017126034E1
1.567027086E0,4.211068630E0,-7.435098171E0,-7.564310551E0,1.141194891E1
1.569404170E0,4.059124470E0,-8.830412865E0,-8.096115112E0,1.264910126E1
1.571781253E0,3.944568157E0,-1.014197922E1,-8.534600258E0,1.382963347E1
1.574158128E0,3.870091438E0,-1.135214901E1,-8.862715721E0,1.491296834E1
1.576535003E0,3.836292982E0,-1.244776249E1,-9.064909935E0,1.586935811E1
1.578911878E0,3.841078520E0,-1.342014599E1,-9.128618240E0,1.667890505E1
1.581288753E0,3.879662752E0,-1.426541042E1,-9.046364784E0,1.733177525E1
1.583665628E0,3.946362734E0,-1.498295784E1,-8.813663483E0,1.782536026E1
1.586042503E0,4.032803535E0,-1.557757473E1,-8.433204651E0,1.816709331E1
1.588419378E0,4.130012035E0,-1.605673790E1,-7.911569118E0,1.837032273E1
1.590796253E0,4.227220535E0,-1.643121338E1,-7.261917591E0,1.845507013E1
1.593173336E0,4.315156460E0,-1.671446419E1,-6.503093719E0,1.844679149E1
1.595550420E0,4.383950233E0,-1.692114449E1,-5.658726215E0,1.837295112E1
1.597927503E0,4.425226212E0,-1.706710625E1,-4.756333351E0,1.826174826E1
1.600304586E0,4.431806564E0,-1.716880226E1,-3.827319860E0,1.813992993E1
1.602681461E0,4.398905277E0,-1.724178314E1,-2.904886723E0,1.802963728E1
1.605058336E0,4.323531628E0,-1.730010796E1,-2.022234201E0,1.794647855E1
1.607435211E0,4.205984116E0,-1.735633850E1,-1.213161111E0,1.789984772E1
1.609812086E0,4.048357010E0,-1.742124367E1,-5.081757307E-1,1.789265682E1
1.612189170E0,3.855136395E0,-1.750200272E1,6.550352275E-2,1.792167588E1
1.614566253E0,3.634398460E0,-1.760339737E1,4.860421121E-1,1.798123155E1
1.616943336E0,3.395415306E0,-1.772692680E1,7.363911867E-1,1.806419251E1
1.619320420E0,3.149253607E0,-1.787169266E1,8.069794178E-1,1.816497764E1
1.621697295E0,2.908475876E0,-1.803410530E1,6.948158741E-1,1.828034341E1
1.624074170E0,2.686840773E0,-1.820728683E1,4.040879309E-1,1.840890258E1
1.626451045E0,2.497508526E0,-1.838375664E1,-5.383851007E-2,1.855270750E1
1.628827920E0,2.354238272E0,-1.855394745E1,-6.625127792E-1,1.871444167E1
1.631204795E0,2.270190477E0,-1.870738602E1,-1.398305774E0,1.889643658E1
1.633581670E0,2.255833626E0,-1.883390617E1,-2.235195398E0,1.909976192E1
1.635958545E0,2.321336985E0,-1.892274094E1,-3.140878916E0,1.932159026E1
1.638335420E0,2.473879576E0,-1.896491432E1,-4.083052635E0,1.955656857E1
1.640712503E0,2.717947483E0,-1.895205307E1,-5.028516769E0,1.979529073E1
1.643089586E0,3.056531906E0,-1.887757683E1,-5.943173409E0,2.002564866E1
1.645466670E0,3.488436222E0,-1.873759651E1,-6.796812534E0,2.023520128E1
1.647843753E0,4.010071754E0,-1.853031731E1,-7.560721397E0,2.041121856E1
1.650220628E0,4.616353035E0,-1.825604057E1,-8.211568832E0,2.054321288E1
1.652597503E0,5.298307419E0,-1.791865158E1,-8.730213165E0,2.062442140E1
1.654974378E0,6.045167446E0,-1.752383614E1,-9.102297783E0,2.065140933E1
1.657351253E0,6.844369888E0,-1.708026695E1,-9.319745064E0,2.062616218E1
1.659728128E0,7.680362701E0,-1.659781456E1,-9.379266739E0,2.055349274E1
1.662105003E0,8.538787842E0,-1.608844185E1,-9.283554077E0,2.044341545E1
1.664481878E0,9.402297020E0,-1.556441402E1,-9.039485931E0,2.030680869E1
1.666858753E0,1.025503922E1,-1.503859138E1,-8.658727646E0,2.015685056E1
1.669235836E0,1.107996559E1,-1.452323723E1,-8.155636787E0,2.000511106E1
1.671612920E0,1.186182022E1,-1.403031540E1,-7.548757076E0,1.986293691E1
1.673990003E0,1.258564854E1,-1.356999588E1,-6.857829571E0,1.973760785E1
1.676367086E0,1.323799229E1,-1.315095329E1,-6.102894306E0,1.963255794E1
1.678743961E0,1.380718517E1,-1.277886963E1,-5.306383133E0,1.954726511E1
1.681120836E0,1.428335667E1,-1.245823097E1,-4.488636017E0,1.947741384E1
1.683497711E0,1.465902996E1,-1.218963718E1,-3.669393539E0,1.941491342E1
1.685874586E0,1.492852116E1,-1.197188950E1,-2.867199659E0,1.934961798E1
1.688251461E0,1.508854103E1,-1.180050373E1,-2.098206282E0,1.926962450E1
1.690628336E0,1.513849163E1,-1.166949654E1,-1.377368569E0,1.916372152E1
1.693005211E0,1.507896996E1,-1.157019520E1,-7.157530785E-1,1.901991205E1
1.695382086E0,1.491416454E1,-1.149302673E1,-1.232303679E-1,1.882915700E1
1.697759170E0,1.464885998E1,-1.142812061E1,3.933202326E-1,1.858348030E1
1.700136253E0,1.429023552E1,-1.136411285E1,8.297112584E-1,1.827682448E1
1.702513336E0,1.384606838E1,-1.129143143E1,1.182951689E0,1.790556919E1
1.704890420E0,1.332682610E1,-1.120050335E1,1.453340650E0,1.746905172E1
1.707267295E0,1.274297714E1,-1.108564854E1,1.642074585E0,1.696972242E1
1.709644170E0,1.210469151E1,-1.093998528E1,1.752144337E0,1.640965704E1
1.712021045E0,1.142512989E1,-1.076142120E1,1.787737608E0,1.579676502E1
1.714397920E0,1.071535873E1,-1.054905796E1,1.753939033E0,1.513862077E1
1.716775003E0,9.988240242E0,-1.030558777E1,1.657029629E0,1.444700071E1
1.719152086E0,9.256035805E0,-1.003460121E1,1.502991676E0,1.373413282E1
1.721529170E0,8.531010628E0,-9.743574142E0,1.299601793E0,1.301554241E1
1.723906253E0,7.824829102E0,-9.442078590E0,1.053440213E0,1.230814912E1
1.726283128E0,7.148856640E0,-9.140881538E0,7.719843984E-1,1.163003983E1
1.728660003E0,6.513263226E0,-8.851948738E0,4.624129832E-1,1.099970091E1
1.731036878E0,5.926722527E0,-8.587541580E0,1.328016520E-1,1.043501541E1
1.733413753E0,5.397609711E0,-8.359924316E0,-2.099701911E-1,9.953221220E0
1.735790628E0,4.932205677E0,-8.180462837E0,-5.596213937E-1,9.568688582E0
1.738167503E0,4.536791801E0,-8.059026718E0,-9.077770710E-1,9.292709546E0
1.740544378E0,4.214358807E0,-8.003094673E0,-1.249651670E0,9.130825472E0
1.742921253E0,3.967898130E0,-8.018648148E0,-1.578664780E0,9.084883938E0
1.745298336E0,3.797708750E0,-8.109275818E0,-1.888834357E0,9.151537645E0
1.747675420E0,3.703491211E0,-8.276773453E0,-2.175973177E0,9.325003228E0
1.750052503E0,3.681357622E0,-8.519046783E0,-2.435295343E0,9.594645145E0
1.752429586E0,3.727718592E0,-8.834002495E0,-2.662912607E0,9.951210456E0
1.754806461E0,3.835395575E0,-9.215059280E0,-2.856132984E0,1.038195899E1
1.757183336E0,3.997808456E0,-9.655637741E0,-3.012563705E0,1.087609087E1
1.759560211E0,4.205385685E0,-1.014796066E1,-3.131606579E0,1.142249247E1
1.761937086E0,4.448257446E0,-1.068335533E1,-3.213859797E0,1.201041091E1
1.764313961E0,4.715954304E0,-1.125314617E1,-3.260220766E0,1.262943242E1
1.766690836E0,4.997110844E0,-1.185045433E1,-3.274577856E0,1.327129401E1
1.769067711E0,5.280361176E0,-1.246810150E1,-3.260220766E0,1.392712492E1
1.771444586E0,5.553741455E0,-1.310130215E1,-3.221935749E0,1.459003194E1
1.773821670E0,5.806483269E0,-1.374616814E1,-3.166003466E0,1.525437525E1
1.776198753E0,6.027520180E0,-1.440120316E1,-3.098705292E0,1.591626923E1
1.778575836E0,6.207580090E0,-1.506491184E1,-3.026621580E0,1.657244875E1
1.780952920E0,6.338886261E0,-1.573879051E1,-2.957827806E0,1.722323289E1
1.783329795E0,6.415157318E0,-1.642343712E1,-2.899502754E0,1.786870578E1
1.785706670E0,6.432206154E0,-1.711915016E1,-2.858226538E0,1.850967415E1
1.788083545E0,6.387938976E0,-1.782652855E1,-2.840579510E0,1.914836224E1
1.790460420E0,6.282355785E0,-1.854377747E1,-2.851347208E0,1.978559723E1
1.792837503E0,6.117849350E0,-1.926850319E1,-2.893520832E0,2.042243273E1
1.795214586E0,5.899205208E0,-1.999472427E1,-2.969193697E0,2.105720143E1
1.797591670E0,5.632405281E0,-2.071406746E1,-3.078366280E0,2.168577688E1
1.799968753E0,5.326124191E0,-2.141606140E1,-3.218047380E0,2.230181862E1
1.802345628E0,4.990231514E0,-2.208575249E1,-3.384049416E0,2.289398751E1
1.804722503E0,4.635794640E0,-2.270639229E1,-3.570091486E0,2.344816402E1
1.807099378E0,4.273880482E0,-2.325823593E1,-3.768097401E0,2.394598403E1
1.809476253E0,3.917050600E0,-2.372064972E1,-3.968197346E0,2.436717256E1
1.811853128E0,3.576372623E0,-2.407119751E1,-4.159024715E0,2.468826598E1
1.814230003E0,3.262314558E0,-2.428774834E1,-4.329812527E0,2.488543132E1
1.816606878E0,2.984747171E0,-2.434936333E1,-4.468297005E0,2.493523387E1
1.818983753E0,2.751446962E0,-2.423690033E1,-4.563411713E0,2.481577169E1
1.821360836E0,2.568994284E0,-2.393510628E1,-4.604688168E0,2.450902277E1
1.823737920E0,2.440679073E0,-2.343231392E1,-4.584050179E0,2.400091177E1
1.826115003E0,2.368595362E0,-2.272194481E1,-4.494318962E0,2.328295348E1
1.828492086E0,2.352144718E0,-2.180340004E1,-4.331607342E0,2.235360508E1
1.830868961E0,2.388934374E0,-2.068236160E1,-4.095315933E0,2.121882894E1
1.833245836E0,2.473580360E0,-1.937109566E1,-3.787240028E0,1.989223803E1
1.835622711E0,2.599801779E0,-1.788844299E1,-3.412165165E0,1.839560364E1
1.837999586E0,2.758924484E0,-1.625893021E1,-2.978466034E0,1.675815430E1
1.840376461E0,2.941377163E0,-1.451366615E1,-2.496910334E0,1.501774837E1
1.842753336E0,3.137289524E0,-1.268734360E1,-1.980060697E0,1.321861995E1
1.845130211E0,3.335295677E0,-1.081854916E1,-1.443470240E0,1.141266005E1
1.847507086E0,3.525225878E0,-8.947062492E0,-9.026923180E-1,9.658778295E0
1.849884170E0,3.695714474E0,-7.112665176E0,-3.744767308E-1,8.024247267E0
1.852261253E0,3.839582920E0,-5.357530117E0,1.250249892E-1,6.592507657E0
1.854638336E0,3.946960926E0,-3.715754509E0,5.802595019E-1,5.451791743E0
1.857015420E0,4.012464523E0,-2.221137524E0,9.771689177E-1,4.689155846E0
1.859392295E0,4.031607151E0,-9.017950296E-1,1.304088354E0,4.332174619E0
1.861769170E0,4.001996040E0,2.216351926E-1,1.552044630E0,4.298131803E0
1.864146045E0,3.923032761E0,1.135394335E0,1.715354681E0,4.429644232E0
1.866522920E0,3.796213150E0,1.834098577E0,1.791027784E0,4.580713088E0
1.868900003E0,3.624827147E0,2.318944216E0,1.780260086E0,4.656844435E0
1.871277086E0,3.414258718E0,2.599203587E0,1.686640859E0,4.610615931E0
1.873654170E0,3.171387196E0,2.690429926E0,1.517348647E0,4.427014439E0
1.876031253E0,2.903989315E0,2.614457846E0,1.282552958E0,4.112600863E0
1.878408128E0,2.620738983E0,2.397907495E0,9.936196208E-1,3.688565185E0
1.880785003E0,2.331506491E0,2.070987940E0,6.652047038E-1,3.188637775E0
1.883161878E0,2.045564175E0,1.666002750E0,3.119642437E-1,2.656542800E0
1.885538753E0,1.772184253E0,1.215852976E0,-5.054837838E-2,2.149765248E0
1.887915628E0,1.520638824E0,7.531409264E-1,-4.067798555E-1,1.745002446E0
1.890292503E0,1.298704505E0,3.077768087E-1,-7.417750359E-1,1.526954537E0
1.892669378E0,1.113260746E0,-9.332008660E-2,-1.042074203E0,1.527735832E0
1.895046253E0,9.705886841E-1,-4.280161560E-1,-1.296012521E0,1.674780188E0
1.897423336E0,8.742775917E-1,-6.786643267E-1,-1.494018674E0,1.859311263E0
1.899800420E0,8.276175261E-1,-8.341978192E-1,-1.629811287E0,2.009258968E0
1.902177503E0,8.309076428E-1,-8.883354068E-1,-1.698604941E0,2.089211826E0
1.904554586E0,8.844470978E-1,-8.413762450E-1,-1.698904037E0,2.091993208E0
1.906931461E0,9.855438471E-1,-6.990033388E-1,-1.632802367E0,2.031242455E0
1.909308336E0,1.130907774E0,-4.710869491E-1,-1.503589988E0,1.939499461E0
1.911685211E0,1.315454245E0,-1.725823283E-1,-1.317847013E0,1.870006760E0
1.914062086E0,1.533500195E0,1.794617027E-1,-1.083350420E0,1.886127642E0
1.916438961E0,1.778166294E0,5.644070506E-1,-8.105686903E-1,2.034072833E0
1.918815836E0,2.041975021E0,9.619147182E-1,-5.096712112E-1,2.314023910E0
1.921192711E0,2.316551447E0,1.351047516E0,-1.929213256E-1,2.688672281E0
1.923569586E0,2.594418049E0,1.711466432E0,1.280160099E-1,3.110708996E0
1.925946670E0,2.867199659E0,2.025225163E0,4.417748749E-1,3.538012985E0
1.928323753E0,3.127718210E0,2.277069807E0,7.372884750E-1,3.938434004E0
1.930700836E0,3.368196964E0,2.455035925E0,1.004686356E0,4.287347298E0
1.933077920E0,3.582952738E0,2.550449848E0,1.235593796E0,4.568264088E0
1.935454795E0,3.765704632E0,2.558824778E0,1.424028635E0,4.770322124E0
1.937831670E0,3.912863255E0,2.479562521E0,1.564906001E0,4.889545985E0
1.940208545E0,4.020241261E0,2.315953255E0,1.655235052E0,4.926031095E0
1.942585420E0,4.086342812E0,2.074278116E0,1.695015788E0,4.886093102E0
1.944962503E0,4.109972000E0,1.764108539E0,1.684547186E0,4.779293672E0
1.947339586E0,4.091128349E0,1.397109270E0,1.627119422E0,4.619173421E0
1.949716670E0,4.031906128E0,9.867402315E-1,1.527518153E0,4.423034594E0
1.952093753E0,3.934398651E0,5.470590591E-1,1.390828133E0,4.208701612E0
1.954470628E0,3.802195072E0,9.302098304E-2,1.224527001E0,3.995598409E0
1.956847503E0,3.639782429E0,-3.619144261E-1,1.035793066E0,3.801560924E0
1.959224378E0,3.452244759E0,-8.042874932E-1,8.324031830E-1,3.641121710E0
1.961601253E0,3.244966507E0,-1.223031521E0,6.221339107E-1,3.523161128E0
1.963978128E0,3.024527788E0,-1.608874083E0,4.121637046E-1,3.450525043E0
1.966355003E0,2.796312332E0,-1.954637051E0,2.090728730E-1,3.418139863E0
1.968731878E0,2.567199707E0,-2.256132603E0,1.854437590E-2,3.417746707E0
1.971108753E0,2.342872381E0,-2.511267424E0,-1.549352705E-1,3.437952880E0
1.973485836E0,2.129312992E0,-2.721237659E0,-3.083750308E-1,3.469034935E0
1.975862920E0,1.931606054E0,-2.889034271E0,-4.408775866E-1,3.503140593E0
1.978240003E0,1.754537225E0,-3.019742250E0,-5.521438122E-1,3.535831857E0
1.980617086E0,1.601994753E0,-3.120240688E0,-6.439684033E-1,3.566088115E0
1.982993961E0,1.477268934E0,-3.199502945E0,-7.199404836E-1,3.596867651E0
1.985370836E0,1.382752419E0,-3.267100334E0,-7.845467329E-1,3.633381678E0
1.987747711E0,1.320239902E0,-3.333201885E0,-8.440681696E-1,3.683167018E0
1.990124586E0,1.290329576E0,-3.407977581E0,-9.050851464E-1,3.754789039E0
1.992501461E0,1.293021560E0,-3.502494097E0,-9.753743410E-1,3.858850186E0
1.994878336E0,1.327418327E0,-3.626621723E0,-1.062413216E0,4.005389666E0
1.997255211E0,1.392323732E0,-3.789333820E0,-1.173679471E0,4.204181214E0
1.999632086E0,1.485045552E0,-3.999004841E0,-1.316650629E0,4.464411371E0
2.002009170E0,1.603490233E0,-4.263411522E0,-1.496710539E0,4.794580396E0
2.004386253E0,1.743470430E0,-4.588237286E0,-1.719243050E0,5.200712181E0
2.006763336E0,1.901695848E0,-4.977669239E0,-1.987239242E0,5.687069364E0
2.009140420E0,2.073979139E0,-5.434997559E0,-2.301895380E0,6.256141804E0
2.011517295E0,2.255833626E0,-5.961717606E0,-2.662613392E0,6.907993358E0
2.013894170E0,2.442473650E0,-6.558128834E0,-3.065505028E0,7.640160496E0
2.016271045E0,2.630310297E0,-7.223034382E0,-3.505784273E0,8.448744363E0
2.018647920E0,2.814557552E0,-7.953144073E0,-3.975375652E0,9.326191422E0
2.021025003E0,2.991028309E0,-8.744869232E0,-4.464408875E0,1.026401163E1
2.023402086E0,3.156432152E0,-9.593423843E0,-4.961816788E0,1.125239845E1
2.025779170E0,3.307778120E0,-1.049222851E1,-5.453841209E0,1.227895106E1
2.028156253E0,3.441776276E0,-1.143410301E1,-5.926423550E0,1.333068009E1
2.030533128E0,3.557528973E0,-1.240977669E1,-6.365207195E0,1.439355524E1
2.032910003E0,3.654139280E0,-1.341027546E1,-6.756134510E0,1.545424134E1
2.035286878E0,3.731307745E0,-1.442453289E1,-7.085446835E0,1.649828365E1
2.037663753E0,3.790230989E0,-1.544208050E1,-7.340581894E0,1.751307636E1
2.040040628E0,3.833002806E0,-1.645035744E1,-7.511967659E0,1.848609825E1
2.042417503E0,3.862314939E0,-1.743709755E1,-7.591229916E0,1.940609748E1
2.044794378E0,3.881756544E0,-1.839063644E1,-7.573582649E0,2.026432078E1
2.047171253E0,3.895515203E0,-1.929751587E1,-7.457231998E0,2.105182810E1
2.049548336E0,3.908974886E0,-2.014577293E1,-7.243373394E0,2.176232317E1
2.051925420E0,3.926921129E0,-2.092343903E1,-6.937091827E0,2.239049471E1
2.054302503E0,3.955036640E0,-2.161975098E1,-6.546164513E0,2.293268883E1
2.056679586E0,3.997808456E0,-2.222453690E1,-6.081956863E0,2.338595117E1
2.059056461E0,4.060320854E0,-2.273002052E1,-5.558228016E0,2.374939867E1
2.061433336E0,4.146163464E0,-2.313022041E1,-4.991128922E0,2.402309588E1
2.063810211E0,4.258625984E0,-2.342064857E1,-4.397409916E0,2.420743458E1
2.066187086E0,4.399503708E0,-2.359951210E1,-3.795614958E0,2.430430614E1
2.068563961E0,4.569094658E0,-2.366740799E1,-3.203690529E0,2.431638254E1
2.070940836E0,4.766203403E0,-2.362702942E1,-2.638685226E0,2.424697659E1
2.073317711E0,4.988736153E0,-2.348346138E1,-2.117049932E0,2.410067109E1
2.075694586E0,5.232803822E0,-2.324447823E1,-1.651944876E0,2.388340272E1
2.078071253E0,5.493023396E0,-2.291935349E1,-1.254736423E0,2.360178878E1
2.080447920E0,5.762814045E0,-2.251885414E1,-9.329017401E-1,2.326325693E1
2.082824586E0,6.035296917E0,-2.205554390E1,-6.915257573E-1,2.287684492E1
2.085201253E0,6.301797390E0,-2.154318047E1,-5.312066078E-1,2.245224834E1
2.087578545E0,6.554539204E0,-2.099582291E1,-4.495515525E-1,2.199974228E1
2.089956045E0,6.785446644E0,-2.042842484E1,-4.408775866E-1,2.153037855E1
2.092333545E0,6.986443996E0,-1.985534286E1,-4.965106845E-1,2.105449033E1
2.094711045E0,7.150950432E0,-1.929063797E1,-6.056832075E-1,2.058231419E1
2.097087920E0,7.273283482E0,-1.874746704E1,-7.552346587E-1,2.012308506E1
2.099464795E0,7.349554539E0,-1.823779488E1,-9.317052960E-1,1.968504988E1
2.101841670E0,7.376772881E0,-1.777268982E1,-1.120738268E0,1.927540754E1
2.104218545E0,7.354938507E0,-1.736052704E1,-1.308275819E0,1.889959272E1
2.106595420E0,7.285247803E0,-1.700878143E1,-1.481755376E0,1.856257203E1
2.108972295E0,7.170990467E0,-1.672224045E1,-1.629512191E0,1.826777873E1
2.111349170E0,7.016952515E0,-1.650389671E1,-1.742872238E0,1.801815287E1
2.113726045E0,6.830910206E0,-1.635434532E1,-1.814955950E0,1.781628497E1
2.116103128E0,6.620641232E0,-1.627209091E1,-1.841576099E0,1.766366993E1
2.118480211E0,6.395117760E0,-1.625384521E1,-1.821536183E0,1.756140682E1
2.120857295E0,6.165107727E0,-1.629422569E1,-1.756032705E0,1.750982567E1
2.123234378E0,5.939883232E0,-1.638664818E1,-1.649253011E0,1.750784072E1
2.125611253E0,5.729912758E0,-1.652243996E1,-1.507179141E0,1.755262121E1
2.127988128E0,5.544469357E0,-1.669322777E1,-1.337587833E0,1.764069542E1
2.130365003E0,5.391926765E0,-1.688884163E1,-1.149452209E0,1.776589672E1
2.132741878E0,5.279464245E0,-1.709970856E1,-9.526425004E-1,1.792150393E1
2.135118753E0,5.212464809E0,-1.731625938E1,-7.573283911E-1,1.809961808E1
2.137495628E0,5.195116997E0,-1.752862167E1,-5.733801126E-1,1.829127068E1
2.139872503E0,5.229214668E0,-1.772872162E1,-4.091726840E-1,1.848836603E1
2.142249378E0,5.314459324E0,-1.790937996E1,-2.730808854E-1,1.868325297E1
2.144626461E0,5.449055195E0,-1.806461525E1,-1.704886109E-1,1.886932943E1
2.147003545E0,5.629414558E0,-1.819023705E1,-1.064806059E-1,1.904170082E1
2.149380628E0,5.850451469E0,-1.828355789E1,-8.285148442E-2,1.919695642E1
2.151757711E0,6.105586052E0,-1.834337807E1,-1.007976532E-1,1.933307684E1
2.154134586E0,6.387639999E0,-1.836969948E1,-1.588236094E-1,1.944924237E1
2.156511461E0,6.688238621E0,-1.836491394E1,-2.539383173E-1,1.954653638E1
2.158888336E0,6.998707294E0,-1.833201218E1,-3.825525343E-1,1.962628138E1
2.161265211E0,7.310671329E0,-1.827488327E1,-5.392823815E-1,1.969030470E1
2.163642295E0,7.615756035E0,-1.819771576E1,-7.184450030E-1,1.974013075E1
2.166019378E0,7.906185150E0,-1.810559082E1,-9.143573642E-1,1.977767003E1
2.168396461E0,8.175676346E0,-1.800359726E1,-1.121037364E0,1.980474496E1
2.170773545E0,8.417949677E0,-1.789562225E1,-1.333400369E0,1.982153196E1
2.173150420E0,8.627920151E0,-1.778525162E1,-1.546361685E0,1.982794532E1
2.175527295E0,8.802895546E0,-1.767548180E1,-1.756331801E0,1.982418543E1
2.177904170E0,8.940483093E0,-1.756810379E1,-1.961516380E0,1.980954455E1
2.180281045E0,9.039186478E0,-1.746371651E1,-2.160718918E0,1.978274482E1
2.182657920E0,9.099605560E0,-1.736172295E1,-2.353341103E0,1.974260518E1
2.185034795E0,9.122037888E0,-1.726002884E1,-2.541177750E0,1.968699457E1
2.187411670E0,9.108877182E0,-1.715623856E1,-2.725723982E0,1.961473263E1
2.189788545E0,9.061918259E0,-1.704616928E1,-2.909971476E0,1.952327287E1
2.192165628E0,8.983852386E0,-1.692622948E1,-3.097209692E0,1.941132545E1
2.194542711E0,8.877671242E0,-1.679163361E1,-3.290131092E0,1.927685058E1
2.196919795E0,8.745766640E0,-1.663729668E1,-3.491726398E0,1.911753719E1
2.199296878E0,8.591429710E0,-1.645843315E1,-3.704388618E0,1.893185626E1
2.201673753E0,8.416753769E0,-1.625055504E1,-3.929313898E0,1.871795370E1
2.204050628E0,8.224430084E0,-1.600947952E1,-4.167399883E0,1.847462873E1
2.206427503E0,8.015955925E0,-1.573191166E1,-4.417150497E0,1.820054429E1
2.208804378E0,7.792825222E0,-1.541546059E1,-4.676472664E0,1.789508163E1
2.211181461E0,7.556234837E0,-1.505893040E1,-4.941776752E0,1.755816696E1
2.213558545E0,7.306783199E0,-1.466202068E1,-5.207679272E0,1.718964382E1
2.215935628E0,7.044768810E0,-1.422592926E1,-5.467898846E0,1.678998954E1
2.218312711E0,6.771090031E0,-1.375364590E1,-5.715556145E0,1.636086849E1
2.220689586E0,6.485745907E0,-1.324876022E1,-5.942574978E0,1.590310488E1
2.223066461E0,6.189035892E0,-1.271635723E1,-6.140880108E0,1.541818131E1
2.225443336E0,5.881258965E0,-1.216331577E1,-6.301797390E0,1.490798806E1
2.227820211E0,5.563611984E0,-1.159621716E1,-6.417550564E0,1.437396904E1
2.230197086E0,5.237290382E0,-1.102343464E1,-6.481558323E0,1.381868011E1
2.232573961E0,4.903491974E0,-1.045214844E1,-6.487540245E0,1.324310458E1
2.234950836E0,4.564907551E0,-9.890433311E0,-6.431309223E0,1.264993243E1
2.237327711E0,4.223331928E0,-9.345767021E0,-6.309873104E0,1.204136173E1
2.239704795E0,3.882354736E0,-8.823832512E0,-6.122634888E0,1.142012944E1
2.242081878E0,3.544966698E0,-8.329714775E0,-5.870491028E0,1.078951352E1
2.244458961E0,3.214757204E0,-7.867600918E0,-5.557031631E0,1.015452651E1
2.246836045E0,2.895913601E0,-7.439584732E0,-5.187340260E0,9.520621594E0
2.249212920E0,2.592025042E0,-7.045965195E0,-4.767998219E0,8.893707121E0
2.251589795E0,2.306680918E0,-6.685845375E0,-4.307679176E0,8.281147573E0
2.253966670E0,2.043171406E0,-6.356832504E0,-3.816552162E0,7.690899771E0
2.256343545E0,1.804188251E0,-6.054738522E0,-3.304787159E0,7.129976997E0
2.258720628E0,1.592423439E0,-5.774479389E0,-2.783750057E0,6.605277360E0
2.261097711E0,1.409073472E0,-5.510670662E0,-2.265105724E0,6.122391946E0
2.263474795E0,1.255035520E0,-5.256134033E0,-1.759921074E0,5.683254465E0
2.265851878E0,1.130309582E0,-5.004887581E0,-1.278664589E0,5.287861815E0
2.268228753E0,1.033998489E0,-4.750650406E0,-8.312067389E-1,4.932416933E0
2.270605628E0,9.643075466E-1,-4.487140656E0,-4.250251353E-1,4.609226255E0
2.272982503E0,9.191430211E-1,-4.209274292E0,-6.759724021E-2,4.308988669E0
2.275359378E0,8.949156404E-1,-3.913760424E0,2.368894368E-1,4.021754749E0
2.277736253E0,8.886345029E-1,-3.597908020E0,4.851447940E-1,3.737643492E0
2.280113128E0,8.955138922E-1,-3.260519981E0,6.765705943E-1,3.448287031E0
2.282490003E0,9.119645357E-1,-2.902194738E0,8.117650747E-1,3.148551437E0
2.284866878E0,9.334999323E-1,-2.525624275E0,8.937192559E-1,2.837064365E0
2.287243961E0,9.556335211E-1,-2.133799553E0,9.263214469E-1,2.514837446E0
2.289621045E0,9.744769931E-1,-1.732403636E0,9.152546525E-1,2.188268459E0
2.291998128E0,9.867402315E-1,-1.327418327E0,8.668000102E-1,1.867361229E0
2.294375211E0,9.894321561E-1,-9.254241586E-1,7.890332937E-1,1.567788061E0
2.296752086E0,9.798609018E-1,-5.344967842E-1,6.894320250E-1,1.311918716E0
2.299128961E0,9.565308690E-1,-1.621137410E-1,5.754738450E-1,1.128008118E0
2.301505836E0,9.188438654E-1,1.845464408E-1,4.552344978E-1,1.041906851E0
2.303882711E0,8.668000102E-1,4.980062246E-1,3.355933726E-1,1.054502427E0
2.306259795E0,8.006982803E-1,7.728816867E-1,2.225325108E-1,1.134894073E0
2.308636878E0,7.220342159E-1,1.003789067E0,1.217348501E-1,1.242475462E0
2.311013961E0,6.334998012E-1,1.187139153E0,3.708875179E-2,1.346104358E0
2.313391045E0,5.368895531E-1,1.320838094E0,-2.871387079E-2,1.426074384E0
2.315767920E0,4.354937077E-1,1.404586911E0,-7.387840003E-2,1.472405236E0
2.318144795E0,3.323032558E-1,1.439282775E0,-9.780662507E-2,1.480380524E0
2.320521670E0,2.309073806E-1,1.427617788E0,-1.016949639E-1,1.449742265E0
2.322898545E0,1.339980662E-1,1.374078393E0,-8.733802289E-2,1.383356368E0
2.325275420E0,4.456632212E-2,1.283749342E0,-5.742774159E-2,1.285805769E0
2.327652295E0,-3.439682722E-2,1.162911773E0,-1.555334684E-2,1.163524318E0
2.330029170E0,-1.016949639E-1,1.019043326E0,3.439682722E-2,1.024682540E0
2.332406045E0,-1.549352705E-1,8.593224287E-1,8.823533356E-2,8.776248906E-1
2.334783128E0,-1.938186288E-1,6.918248534E-1,1.414756328E-1,7.322585905E-1
2.337160211E0,-2.174477577E-1,5.240281820E-1,1.899302900E-1,5.982997392E-1
2.339537295E0,-2.264208496E-1,3.628117442E-1,2.300100774E-1,4.855959211E-1
2.341914378E0,-2.216351926E-1,2.150549293E-1,2.581257522E-1,4.024918448E-1
2.344291253E0,-2.045863420E-1,8.584251255E-2,2.715853751E-1,3.506894983E-1
2.346668128E0,-1.767697781E-1,-2.033899166E-2,2.685943544E-1,3.221865240E-1
2.349045003E0,-1.402792335E-1,-1.004985496E-1,2.479562461E-1,3.020935647E-1
2.351421878E0,-9.810572863E-2,-1.528415531E-1,2.093719840E-1,2.771676425E-1
2.353798961E0,-5.234299600E-2,-1.767697781E-1,1.534397453E-1,2.398564136E-1
2.356176045E0,-5.383851007E-3,-1.728814393E-1,8.105687052E-2,1.910162144E-1
2.358553128E0,3.978067636E-2,-1.435693651E-1,-5.383851007E-3,1.490759896E-1
2.360930211E0,8.195417374E-2,-9.122636169E-2,-1.037886813E-1,1.606574805E-1
2.363307086E0,1.184447184E-1,-1.944168471E-2,-2.105683982E-1,2.423761143E-1
2.365683961E0,1.483550072E-1,6.729813665E-2,-3.233301640E-1,3.620506073E-1
2.368060836E0,1.704886109E-1,1.645065546E-1,-4.378865361E-1,4.978688497E-1
2.370437711E0,1.839482337E-1,2.673979402E-1,-5.509474277E-1,6.394385656E-1
2.372814586E0,1.893320978E-1,3.708875179E-1,-6.592226624E-1,7.797298974E-1
2.375191461E0,1.863410622E-1,4.713860750E-1,-7.597211599E-1,9.132929782E-1
2.377568336E0,1.761715710E-1,5.644070506E-1,-8.497511148E-1,1.035214325E0
2.379945211E0,1.597209126E-1,6.469594240E-1,-9.269196987E-1,1.141598613E0
2.382322295E0,1.384846121E-1,7.160521746E-1,-9.897312522E-1,1.229421269E0
2.384699378E0,1.139581800E-1,7.707880139E-1,-1.036989570E0,1.297092131E0
2.387076461E0,8.763712645E-2,8.093722463E-1,-1.068096161E0,1.342979191E0
2.389453545E0,6.161518395E-2,8.324031830E-1,-1.083350420E0,1.367603606E0
2.391830420E0,3.738785535E-2,8.404789567E-1,-1.083350420E0,1.371659893E0
2.394207295E0,1.615155302E-2,8.347960114E-1,-1.068993568E0,1.356426372E0
2.396584170E0,-5.982056609E-4,8.174480200E-1,-1.042074203E0,1.324439606E0
2.398961045E0,-1.196411345E-2,7.908278704E-1,-1.004686356E0,1.278650278E0
2.401338128E0,-1.704886183E-2,7.579265833E-1,-9.586246014E-1,1.222172040E0
2.403715211E0,-1.585244946E-2,7.217351198E-1,-9.062815905E-1,1.158662679E0
2.406092295E0,-8.075776510E-3,6.849454641E-1,-8.503493667E-1,1.091929280E0
2.408469378E0,5.682953633E-3,6.502495408E-1,-7.929216027E-1,1.025466445E0
2.410846253E0,2.512463741E-2,6.206383705E-1,-7.363911867E-1,9.633769845E-1
2.413223128E0,4.935196787E-2,5.979065299E-1,-6.825526357E-1,9.087386509E-1
2.415600003E0,7.746763527E-2,5.835496187E-1,-6.337988973E-1,8.650042972E-1
2.417976878E0,1.079761237E-1,5.793621540E-1,-5.916253924E-1,8.350688317E-1
2.420353753E0,1.399801224E-1,5.853442550E-1,-5.575276613E-1,8.204019897E-1
2.422730628E0,1.722832322E-1,6.017948985E-1,-5.330012441E-1,8.221489756E-1
2.425107503E0,2.039881349E-1,6.278168559E-1,-5.189434290E-1,8.396829439E-1
2.427484378E0,2.341975123E-1,6.631109715E-1,-5.165506005E-1,8.725761618E-1
2.429861461E0,2.626122832E-1,7.052844763E-1,-5.270192027E-1,9.187712685E-1
2.432238545E0,2.889333367E-1,7.522436380E-1,-5.509474277E-1,9.761639371E-1
2.434615628E0,3.125624657E-1,8.021938205E-1,-5.895316601E-1,1.043435575E0
2.436992711E0,3.343969584E-1,8.518448472E-1,-6.433702111E-1,1.118653744E0
2.439369586E0,3.550350666E-1,8.985049129E-1,-7.133602500E-1,1.200934562E0
2.441746461E0,3.750749528E-1,9.394819736E-1,-7.995018363E-1,1.289383878E0
2.444123336E0,3.957130313E-1,9.711868763E-1,-9.023932219E-1,1.383512298E0
2.446500211E0,4.184448719E-1,9.915258884E-1,-1.022034407E0,1.484174527E0
2.448877295E0,4.444667995E-1,9.972088337E-1,-1.157527924E0,1.591177893E0
2.451254378E0,4.752743840E-1,9.861420393E-1,-1.308574915E0,1.706086214E0
2.453631461E0,5.123631358E-1,9.562317729E-1,-1.473081470E0,1.829443687E0
2.456008545E0,5.569294691E-1,9.053842425E-1,-1.650150299E0,1.962877243E0
2.458385420E0,6.101697683E-1,8.324031830E-1,-1.835893154E0,2.106111554E0
2.460762295E0,6.729813814E-1,7.360920906E-1,-2.027917147E0,2.259907843E0
2.463139170E0,7.453642488E-1,6.158527136E-1,-2.221436739E0,2.422730611E0
2.465516045E0,8.285148144E-1,4.713860750E-1,-2.411366940E0,2.592938901E0
2.467892920E0,9.218349457E-1,3.026920557E-1,-2.592623234E0,2.768230009E0
2.470269795E0,1.025025368E0,1.100698411E-1,-2.758625507E0,2.944962999E0
2.472646670E0,1.137488008E0,-1.061815023E-1,-2.902792931E0,3.119512827E0
2.475023545E0,1.258624673E0,-3.451646566E-1,-3.019742250E0,3.289698765E0
2.477400211E0,1.386640668E0,-6.056832075E-1,-3.103491068E0,3.452720854E0
2.479776878E0,1.520638824E0,-8.865407705E-1,-3.148954630E0,3.607521619E0
2.482153545E0,1.658824325E0,-1.186241865E0,-3.151048422E0,3.753395004E0
2.484530211E0,1.800000787E0,-1.503290772E0,-3.106781006E0,3.892553686E0
2.486907086E0,1.942672849E0,-1.836192250E0,-3.013161898E0,4.027992602E0
2.489284586E0,2.085644007E0,-2.182553291E0,-2.869592667E0,4.165094460E0
2.491662086E0,2.227717876E0,-2.540878534E0,-2.676671267E0,4.310842114E0
2.494039586E0,2.367697954E0,-2.908775091E0,-2.436192513E0,4.472359566E0
2.496416461E0,2.505285263E0,-3.283550978E0,-2.152642965E0,4.657470666E0
2.498793336E0,2.639881611E0,-3.663710594E0,-1.832303882E0,4.873303577E0
2.501170211E0,2.771486759E0,-4.054637909E0,-1.484746456E0,5.130857576E0
2.503547086E0,2.900998354E0,-4.465904236E0,-1.129113197E0,5.443802780E0
2.505924170E0,3.025724173E0,-4.892126083E0,-7.731808424E-1,5.803939438E0
2.508301253E0,3.146561861E0,-5.347360611E0,-4.325026870E-1,6.219499628E0
2.510678336E0,3.262912750E0,-5.842973709E0,-1.277169138E-1,6.693523212E0
2.513055420E0,3.372683525E0,-6.383452415E0,1.292124242E-1,7.220813995E0
2.515432295E0,3.475873947E0,-6.981658459E0,3.218346536E-1,7.805692287E0
2.517809170E0,3.571886063E0,-7.652844906E0,4.375874400E-1,8.456706686E0
2.520186045E0,3.659224033E0,-8.414361000E0,4.603192508E-1,9.187126067E0
2.522562920E0,3.737888098E0,-9.284749985E0,3.786641955E-1,1.001607589E1
2.524940003E0,3.806681633E0,-1.028046322E1,1.863410622E-1,1.096419044E1
2.527317086E0,3.865006685E0,-1.141765213E1,-1.184447184E-1,1.205467071E1
2.529694170E0,3.913760424E0,-1.270887947E1,-5.333003402E-1,1.330855166E1
2.532071253E0,3.953242064E0,-1.416461277E1,-1.049850941E0,1.474335663E1
2.534448128E0,3.986143351E0,-1.579053593E1,-1.657029629E0,1.636997590E1
2.536825003E0,4.015455723E0,-1.758754539E1,-2.336591244E0,1.819080252E1
2.539201878E0,4.045664787E0,-1.955085564E1,-3.067598581E0,2.019934456E1
2.541578753E0,4.082454681E0,-2.166910362E1,-3.824328899E0,2.237949909E1
2.543955628E0,4.133002758E0,-2.392433739E1,-4.578965187E0,2.470673093E1
2.546332503E0,4.205684662E0,-2.629084015E1,-5.300401211E0,2.714756549E1
2.548709378E0,4.308875561E0,-2.873510742E1,-5.957530022E0,2.966083227E1
2.551086253E0,4.451547623E0,-3.121766090E1,-6.520441532E0,3.220054016E1
2.553463336E0,4.642673969E0,-3.369213867E1,-6.962216377E0,3.471580457E1
2.555840420E0,4.890331268E0,-3.610769272E1,-7.258328438E0,3.715325215E1
2.558217503E0,5.201398373E0,-3.840988922E1,-7.390830994E0,3.945882053E1
2.560594586E0,5.581258774E0,-4.054159546E1,-7.346862793E0,4.157821310E1
2.562971461E0,6.033203125E0,-4.244717789E1,-7.121040344E0,4.346115123E1
2.565348336E0,6.557829380E0,-4.407190323E1,-6.715456963E0,4.506035001E1
2.567725211E0,7.151847839E0,-4.536582184E1,-6.139982700E0,4.633471815E1
2.570102086E0,7.809575081E0,-4.628436661E1,-5.412265778E0,4.724959975E1
2.572479170E0,8.521140099E0,-4.679164505E1,-4.556831837E0,4.777899739E1
2.574856253E0,9.273384094E0,-4.686133957E1,-3.605385542E0,4.790594539E1
2.577233336E0,1.005075264E1,-4.647878647E1,-2.594118834E0,4.762378264E1
2.579610420E0,1.083350468E1,-4.564099884E1,-1.563709617E0,4.693517643E1
2.581987295E0,1.160100269E1,-4.435904312E1,-5.566303730E-1,4.585431068E1
2.584364170E0,1.233051395E1,-4.265595245E1,3.846462369E-1,4.440405169E1
2.586741045E0,1.299900913E1,-4.056851196E1,1.219143152E0,4.261765727E1
2.589117920E0,1.358435345E1,-3.814398575E1,1.910070658E0,4.053574567E1
2.591494795E0,1.406531048E1,-3.544039536E1,2.425125837E0,3.820648920E1
2.593871670E0,1.442303753E1,-3.252324677E1,2.740081072E0,3.568324027E1
2.596248545E0,1.464198112E1,-2.946462059E1,2.838186741E0,3.302433620E1
2.598625420E0,1.471077442E1,-2.633929443E1,2.711965322E0,3.029059378E1
2.601002503E0,1.462283802E1,-2.322353935E1,2.363510609E0,2.754535086E1
2.603379586E0,1.437637711E1,-2.019153404E1,1.803889155E0,2.485220879E1
2.605756670E0,1.397498131E1,-1.731207275E1,1.053739309E0,2.227371393E1
2.608133753E0,1.342762375E1,-1.464826202E1,1.408774406E-1,1.987190243E1
2.610510628E0,1.274776268E1,-1.225334549E1,-8.991031051E-1,1.770475403E1
2.612887503E0,1.195394325E1,-1.017069244E1,-2.025524378E0,1.582537497E1
2.615264378E0,1.106800079E1,-8.431409836E0,-3.194418192E0,1.427563032E1
2.617641253E0,1.011535835E1,-7.055536747E0,-4.360620022E0,1.308113452E1
2.620018336E0,9.122636795E0,-6.049654007E0,-5.478068352E0,1.224050851E1
2.622395420E0,8.117351532E0,-5.408377171E0,-6.504290104E0,1.172381036E1
2.624772503E0,7.127022266E0,-5.115555763E0,-7.400701523E0,1.147753197E1
2.627149586E0,6.177370548E0,-5.144269466E0,-8.133802414E0,1.143600266E1
2.629526461E0,5.292026520E0,-5.458626747E0,-8.677870750E0,1.153722633E1
2.631903336E0,4.490729809E0,-6.016453266E0,-9.015258789E0,1.173197576E1
2.634280211E0,3.789632797E0,-6.769295216E0,-9.135796547E0,1.198530154E1
2.636657086E0,3.200101137E0,-7.667201996E0,-9.039485931E0,1.227757874E1
2.639033961E0,2.729313374E0,-8.657531738E0,-8.734400749E0,1.259729192E1
2.641410836E0,2.379063845E0,-9.689735413E0,-8.236693382E0,1.293808467E1
2.643787711E0,2.146361828E0,-1.071565819E1,-7.569694519E0,1.329407667E1
2.646164586E0,2.024327993E0,-1.169103241E1,-6.763014317E0,1.365710457E1
2.648541670E0,2.002194405E0,-1.257817173E1,-5.850750446E0,1.401607888E1
2.650918753E0,2.065903187E0,-1.334566879E1,-4.870590687E0,1.435609575E1
2.653295836E0,2.199303150E0,-1.396899986E1,-3.860819340E0,1.465864310E1
2.655672920E0,2.384746790E0,-1.443260860E1,-2.859722137E0,1.490520778E1
2.658049795E0,2.604288340E0,-1.472752380E1,-1.904088616E0,1.507673136E1
2.660426670E0,2.840280533E0,-1.485284805E1,-1.027119160E0,1.515682231E1
2.662803545E0,3.075674295E0,-1.481456280E1,-2.572284341E-1,1.513265376E1
2.665180420E0,3.295814037E0,-1.462493229E1,3.828516304E-1,1.499658661E1
2.667557503E0,3.488137245E0,-1.430160141E1,8.763712645E-1,1.474689564E1
2.669934586E0,3.643072367E0,-1.386491203E1,1.213759303E0,1.438683334E1
2.672311670E0,3.753740549E0,-1.333938789E1,1.392323732E0,1.392725396E1
2.674688753E0,3.816552162E0,-1.275075340E1,1.415653706E0,1.338476216E1
2.677065628E0,3.831208229E0,-1.212413311E1,1.294517040E0,1.278078771E1
2.679442503E0,3.799503326E0,-1.148465157E1,1.044167995E0,1.214181757E1
2.681819378E0,3.726821184E0,-1.085503960E1,6.852445602E-1,1.149741888E1
2.684196253E0,3.619144201E0,-1.025533867E1,2.410768867E-1,1.087788095E1
2.686573336E0,3.485445261E0,-9.701699257E0,-2.623131871E-1,1.031213389E1
2.688950420E0,3.334398270E0,-9.206384659E0,-7.980063558E-1,9.824079827E0
2.691327503E0,3.175873756E0,-8.777471542E0,-1.339681625E0,9.430001466E0
2.693704586E0,3.018545866E0,-8.418548584E0,-1.862214208E0,9.135174939E0
2.696081461E0,2.871686220E0,-8.128717422E0,-2.342872381E0,8.933738281E0
2.698458336E0,2.741875648E0,-7.903792381E0,-2.763111830E0,8.810369065E0
2.700835211E0,2.635395050E0,-7.736294746E0,-3.107080221E0,8.743541100E0
2.703212086E0,2.556132793E0,-7.615756035E0,-3.364607811E0,8.709428257E0
2.705588961E0,2.506182671E0,-7.530810833E0,-3.529413462E0,8.686243306E0
2.707965836E0,2.485843658E0,-7.468298435E0,-3.600898981E0,8.655713355E0
2.710342711E0,2.493321180E0,-7.414460182E0,-3.581457376E0,8.603354418E0
2.712719586E0,2.525325298E0,-7.357032299E0,-3.479164124E0,8.521019605E0
2.715096670E0,2.577368975E0,-7.283751965E0,-3.304188967E0,8.403186196E0
2.717473753E0,2.643769979E0,-7.185048103E0,-3.069991350E0,8.248592779E0
2.719850836E0,2.718246460E0,-7.052246571E0,-2.792124987E0,8.057233238E0
2.722227920E0,2.793919563E0,-6.880561352E0,-2.486740828E0,7.831474381E0
2.724604795E0,2.864806890E0,-6.666104794E0,-2.169991016E0,7.573171901E0
2.726981670E0,2.924627542E0,-6.408577442E0,-1.858026743E0,7.285298516E0
2.729358545E0,2.967997313E0,-6.109773636E0,-1.565205097E0,6.970524293E0
2.731735420E0,2.990729094E0,-5.773880959E0,-1.303490162E0,6.631835978E0
2.734112503E0,2.989831924E0,-5.406881809E0,-1.083051324E0,6.272676144E0
2.736489586E0,2.963510752E0,-5.015954494E0,-9.101698995E-1,5.896660471E0
2.738866670E0,2.912065268E0,-4.610072136E0,-7.896314859E-1,5.509664881E0
2.741243753E0,2.835793972E0,-4.197908401E0,-7.211369276E-1,5.117050016E0
2.743620628E0,2.737389088E0,-3.788735628E0,-7.031907439E-1,4.726763576E0
2.745997503E0,2.620140791E0,-3.391227961E0,-7.307082415E-1,4.347355447E0
2.748374378E0,2.488236427E0,-3.013161898E0,-7.965108156E-1,3.988094109E0
2.750751253E0,2.346760750E0,-2.661417007E0,-8.913264275E-1,3.658536498E0
2.753128128E0,2.200200319E0,-2.341675997E0,-1.005284667E0,3.366738062E0
2.755505003E0,2.054238319E0,-2.057229280E0,-1.127617717E0,3.118270210E0
2.757881878E0,1.913659930E0,-1.810768485E0,-1.246959686E0,2.914770196E0
2.760258753E0,1.783251047E0,-1.602892041E0,-1.353739381E0,2.753517297E0
2.762635836E0,1.666600943E0,-1.432702541E0,-1.438086390E0,2.626459164E0
2.765012920E0,1.566401482E0,-1.297209024E0,-1.492523074E0,2.522694984E0
2.767390003E0,1.485045552E0,-1.193420291E0,-1.511067510E0,2.431653203E0
2.769767086E0,1.423430324E0,-1.116550922E0,-1.489831209E0,2.343594863E0
2.772143961E0,1.381555915E0,-1.061216831E0,-1.427318692E0,2.252135999E0
2.774520836E0,1.358525038E0,-1.022034407E0,-1.323530078E0,2.154501444E0
2.776897711E0,1.351944804E0,-9.933205247E-1,-1.181755304E0,2.052068717E0
2.779274586E0,1.359721422E0,-9.693922997E-1,-1.005882859E0,1.949452257E0
2.781651670E0,1.377966762E0,-9.454640746E-1,-8.021938205E-1,1.853701604E0
2.784028753E0,1.403689623E0,-9.170492887E-1,-5.778666735E-1,1.773486354E0
2.786405836E0,1.432403445E0,-8.805587292E-1,-3.415754437E-1,1.715761373E0
2.788782920E0,1.460519075E0,-8.335995674E-1,-1.013958603E-1,1.684721143E0
2.791159795E0,1.484447360E0,-7.746763229E-1,1.339980662E-1,1.679780596E0
2.793536670E0,1.500598907E0,-7.034898400E-1,3.565305769E-1,1.695231279E0
2.795913545E0,1.506580949E0,-6.206383705E-1,5.587241054E-1,1.722541950E0
2.798290420E0,1.500000715E0,-5.276173949E-1,7.339983582E-1,1.751324028E0
2.800667503E0,1.479960799E0,-4.271188378E-1,8.775677085E-1,1.772805560E0
2.803044586E0,1.445564032E0,-3.224328458E-1,9.858429432E-1,1.779186505E0
2.805421670E0,1.396810174E0,-2.171486616E-1,1.056431174E0,1.764731999E0
2.807798753E0,1.335195065E0,-1.154536903E-1,1.089033365E0,1.726866841E0
2.810175628E0,1.262513041E0,-2.213360928E-2,1.084546804E0,1.664533222E0
2.812552503E0,1.180858016E0,5.892325938E-2,1.045364380E0,1.578190195E0
2.814929378E0,1.093220830E0,1.235294715E-1,9.747761488E-1,1.469891103E0
2.817306253E0,1.002891779E0,1.674975902E-1,8.769695163E-1,1.342729643E0
2.819683128E0,9.134600163E-1,1.875374764E-1,7.570292354E-1,1.201113138E0
2.822060003E0,8.285148144E-1,1.806581169E-1,6.200401783E-1,1.050487494E0
2.824436878E0,7.516453862E-1,1.441675574E-1,4.716851711E-1,8.990227872E-1
2.826813753E0,6.864410043E-1,7.686942816E-2,3.170489967E-1,7.600198863E-1
2.829190836E0,6.355935335E-1,-2.243271284E-2,1.609173268E-1,6.560310606E-1
2.831567920E0,6.014958024E-1,-1.543370634E-1,7.477570791E-3,6.210257994E-1
2.833945003E0,5.862415433E-1,-3.182454109E-1,-1.393819153E-1,6.814591748E-1
2.836322086E0,5.913262963E-1,-5.141577721E-1,-2.769692242E-1,8.311058624E-1
2.838698961E0,6.173482537E-1,-7.402794957E-1,-4.031906128E-1,1.044842222E0
2.841075836E0,6.643074155E-1,-9.957132936E-1,-5.171487927E-1,1.303914176E0
2.843452711E0,7.313064337E-1,-1.278066397E0,-6.182455420E-1,1.597025474E0
2.845829586E0,8.177471161E-1,-1.585843205E0,-7.064808607E-1,1.919042528E0
2.848206670E0,9.212366939E-1,-1.917249203E0,-7.830511928E-1,2.266647463E0
2.850583753E0,1.040279627E0,-2.270190477E0,-8.491529226E-1,2.637613920E0
2.852960836E0,1.172183990E0,-2.642872572E0,-9.059824944E-1,3.029784649E0
2.855337920E0,1.314257860E0,-3.033800125E0,-9.556335211E-1,3.441577015E0
2.857714795E0,1.463809252E0,-3.441477060E0,-9.999007583E-1,3.871214720E0
2.860091670E0,1.618445396E0,-3.865305901E0,-1.040578723E0,4.317726171E0
2.862468545E0,1.775773525E0,-4.304089546E0,-1.079462171E0,4.779518492E0
2.864845420E0,1.933101535E0,-4.757529736E0,-1.118345499E0,5.255631968E0
2.867222295E0,2.088934183E0,-5.225027561E0,-1.159023523E0,5.745249739E0
2.869599170E0,2.241775751E0,-5.706583023E0,-1.202991605E0,6.248026658E0
2.871976045E0,2.390429735E0,-6.202495575E0,-1.252044439E0,6.764075765E0
2.874352920E0,2.534597397E0,-6.712166786E0,-1.307677627E0,7.292968374E0
2.876730003E0,2.674278498E0,-7.235895634E0,-1.372283816E0,7.835375803E0
2.879107086E0,2.809772015E0,-7.773383617E0,-1.447956800E0,8.391477256E0
2.881484170E0,2.941676378E0,-8.324031830E0,-1.537388563E0,8.961391042E0
2.883861253E0,3.070888758E0,-8.887242317E0,-1.642672777E0,9.545250527E0
2.886238128E0,3.199502945E0,-9.461818695E0,-1.767398596E0,1.014329975E1
2.888615003E0,3.328117132E0,-1.004656506E1,-1.914856315E0,1.075530138E1
2.890991878E0,3.458825111E0,-1.063938713E1,-2.088335991E0,1.138073710E1
2.893368753E0,3.593421459E0,-1.123819065E1,-2.291426897E0,1.201916154E1
2.895745836E0,3.732803345E0,-1.183998585E1,-2.527119875E0,1.266907339E1
2.898122920E0,3.878765583E0,-1.244148159E1,-2.798106909E0,1.332909183E1
2.900500003E0,4.032205105E0,-1.303968716E1,-3.106482029E0,1.399794091E1
2.902877086E0,4.193122387E0,-1.362981701E1,-3.453441381E0,1.467243826E1
2.905253961E0,4.362414837E0,-1.420858097E1,-3.838087559E0,1.535074436E1
2.907630836E0,4.539184570E0,-1.477089405E1,-4.258925438E0,1.602878515E1
2.910007711E0,4.723432064E0,-1.531256962E1,-4.711766720E0,1.670288431E1
2.912384586E0,4.913661480E0,-1.582882118E1,-5.191228867E0,1.736791600E1
2.914761670E0,5.108377457E0,-1.631486320E1,-5.689833164E0,1.801789341E1
2.917138753E0,5.306084156E0,-1.676680756E1,-6.197709560E0,1.864650017E1
2.919515836E0,5.503791332E0,-1.718016815E1,-6.703193665E0,1.924532936E1
2.921892920E0,5.699404240E0,-1.755165291E1,-7.193722248E0,1.980639716E1
2.924269795E0,5.889933109E0,-1.787737656E1,-7.654938698E0,2.031969466E1
2.926646670E0,6.072385788E0,-1.815464401E1,-8.070990562E0,2.077512592E1
2.929023545E0,6.244369984E0,-1.838106537E1,-8.426922798E0,2.116290973E1
2.931400420E0,6.402595043E0,-1.855454445E1,-8.706883430E0,2.147263752E1
2.933777295E0,6.544669151E0,-1.867388725E1,-8.896215439E0,2.169537759E1
2.936154170E0,6.668198586E0,-1.873729706E1,-8.982357025E0,2.182278422E1
2.938531045E0,6.771090031E0,-1.874507332E1,-8.954241753E0,2.184957389E1
2.940907920E0,6.852146626E0,-1.869721794E1,-8.804091454E0,2.177268698E1
2.943285003E0,6.909574509E0,-1.859462547E1,-8.527421951E0,2.159211063E1
2.945662086E0,6.942475796E0,-1.843909073E1,-8.123034477E0,2.131153974E1
2.948039170E0,6.950252533E0,-1.823390770E1,-7.594220638E0,2.093928335E1
2.950416253E0,6.933203697E0,-1.798206139E1,-6.948757172E0,2.048680237E1
2.952793128E0,6.891030312E0,-1.768894196E1,-6.198009014E0,1.996998453E1
2.955170003E0,6.824928284E0,-1.735932922E1,-5.357530117E0,1.940693397E1
2.957546878E0,6.735795975E0,-1.699980927E1,-4.446163654E0,1.881841741E1
2.959923753E0,6.624828815E0,-1.661725616E1,-3.486342669E0,1.822570011E1
2.962300836E0,6.493522644E0,-1.621855164E1,-2.501995087E0,1.764843429E1
2.964677920E0,6.343671799E0,-1.581177235E1,-1.518545032E0,1.710439404E1
2.967055003E0,6.176174164E0,-1.540469265E1,-5.617151260E-1,1.660617978E1
2.969432086E0,5.993123531E0,-1.500539112E1,3.427718580E-1,1.616158361E1
2.971808961E0,5.795715332E0,-1.462104321E1,1.171585798E0,1.577142460E1
2.974185836E0,5.585446358E0,-1.425942802E1,1.902892232E0,1.543209310E1
2.976562711E0,5.363811016E0,-1.392712498E1,2.519043922E0,1.513541744E1
2.978939586E0,5.132604599E0,-1.363071442E1,3.005086184E0,1.487180381E1
2.981316670E0,4.893023014E0,-1.337528038E1,3.351447105E0,1.463119944E1
2.983693753E0,4.646861553E0,-1.316530991E1,3.552444220E0,1.440619891E1
2.986070836E0,4.395914078E0,-1.300409412E1,3.607778311E0,1.419318812E1
2.988447920E0,4.142574310E0,-1.289402390E1,3.522234917E0,1.399367403E1
2.990824795E0,3.888635874E0,-1.283599758E1,3.304787159E0,1.381325237E1
2.993201670E0,3.637090445E0,-1.282971668E1,2.968296528E0,1.366165588E1
2.995578545E0,3.390330553E0,-1.287368488E1,2.530110836E0,1.355092486E1
2.997955420E0,3.151945591E0,-1.296520996E1,2.009671926E0,1.349333953E1
3.000332295E0,2.924926519E0,-1.310010624E1,1.428215981E0,1.349843619E1
3.002709170E0,2.712563515E0,-1.327328587E1,8.090731502E-1,1.357176178E1
3.005086045E0,2.518445730E0,-1.347847080E1,1.752742529E-1,1.371285766E1
3.007462920E0,2.345863581E0,-1.370907879E1,-4.507479668E-1,1.391564195E1
3.009840003E0,2.198405743E0,-1.395793247E1,-1.048355460E0,1.416883608E1
3.012217086E0,2.078166485E0,-1.421725464E1,-1.598405480E0,1.445697083E1
3.014594170E0,1.988435626E0,-1.447926903E1,-2.085345030E0,1.476318975E1
3.016971253E0,1.930708766E0,-1.473679638E1,-2.496910334E0,1.507101075E1
3.019348128E0,1.906182289E0,-1.498325729E1,-2.823530674E0,1.536567133E1
3.021725003E0,1.915753603E0,-1.521207047E1,-3.061018467E0,1.563480201E1
3.024101878E0,1.959422588E0,-1.541815281E1,-3.208176851E0,1.586981952E1
3.026478753E0,2.035693884E0,-1.559701633E1,-3.266801119E0,1.606496056E1
3.028855836E0,2.143071890E0,-1.574567032E1,-3.243471146E0,1.621847699E1
3.031232920E0,2.278565407E0,-1.586202145E1,-3.146561861E0,1.633084310E1
3.033610003E0,2.439482689E0,-1.594487286E1,-2.987139940E0,1.640466553E1
3.035987086E0,2.621636391E0,-1.599452400E1,-2.777767897E0,1.644426252E1
3.038363961E0,2.820539713E0,-1.601217079E1,-2.531905413E0,1.645465292E1
3.040740836E0,3.031407118E0,-1.600020599E1,-2.263909340E0,1.644145086E1
3.043117711E0,3.249752283E0,-1.596132374E1,-1.987239242E0,1.640956627E1
3.045494586E0,3.469892025E0,-1.589970779E1,-1.714756489E0,1.636402299E1
3.047871670E0,3.687339783E0,-1.581924915E1,-1.457827210E0,1.630859830E1
3.050248753E0,3.897608995E0,-1.572443390E1,-1.226321578E0,1.624663171E1
3.052625836E0,4.096512318E0,-1.561974812E1,-1.027418256E0,1.618065303E1
3.055002920E0,4.280161381E0,-1.550967789E1,-8.665009141E-1,1.611275003E1
3.057379795E0,4.446163654E0,-1.539811325E1,-7.462615371E-1,1.604453705E1
3.059756670E0,4.591527462E0,-1.528894043E1,-6.675975323E-1,1.597746883E1
3.062133545E0,4.714757919E0,-1.518485260E1,-6.290132403E-1,1.591239606E1
3.064510420E0,4.815256596E0,-1.508913994E1,-6.269195080E-1,1.585124185E1
3.066887295E0,4.892425060E0,-1.500299835E1,-6.565307379E-1,1.579420195E1
3.069264170E0,4.946562767E0,-1.492792320E1,-7.121638656E-1,1.574225371E1
3.071641045E0,4.978865623E0,-1.486391544E1,-7.869395614E-1,1.569536107E1
3.074017920E0,4.990231514E0,-1.481037617E1,-8.739784956E-1,1.565290680E1
3.076395003E0,4.982454777E0,-1.476610851E1,-9.667003751E-1,1.561401056E1
3.078772086E0,4.957629204E0,-1.472902012E1,-1.058824062E0,1.557700964E1
3.081149170E0,4.917549610E0,-1.469641781E1,-1.144965649E0,1.553956038E1
3.083526253E0,4.864309311E0,-1.466561031E1,-1.221236825E0,1.549945323E1
3.085903128E0,4.800301552E0,-1.463270855E1,-1.284646630E0,1.545345824E1
3.088280003E0,4.727021217E0,-1.459502125E1,-1.333699465E0,1.539928989E1
3.090656878E0,4.646861553E0,-1.454836178E1,-1.368395448E0,1.533364467E1
3.093033753E0,4.560719967E0,-1.448973751E1,-1.390229940E0,1.525402894E1
3.095410836E0,4.470989227E0,-1.441675663E1,-1.401595831E0,1.515905958E1
3.097787920E0,4.378267288E0,-1.432612801E1,-1.406680584E0,1.504612636E1
3.100165003E0,4.284049988E0,-1.421665668E1,-1.409671664E0,1.491487800E1
3.102542086E0,4.189234257E0,-1.408774376E1,-1.415653706E0,1.476544220E1
3.104918961E0,4.094717979E0,-1.393849087E1,-1.430010676E0,1.459771124E1
3.107295836E0,4.001397610E0,-1.376949787E1,-1.457229018E0,1.441297231E1
3.109672711E0,3.909573078E0,-1.358196068E1,-1.502991676E0,1.421314186E1
3.112049586E0,3.820739508E0,-1.337797260E1,-1.570289850E0,1.400121465E1
3.114426670E0,3.734897137E0,-1.315902901E1,-1.663011789E0,1.377951774E1
3.116803753E0,3.652942896E0,-1.292842102E1,-1.782951951E0,1.355237911E1
3.119180836E0,3.575774431E0,-1.268824100E1,-1.930708766E0,1.332310996E1
3.121557920E0,3.503989697E0,-1.244148159E1,-2.105684042E0,1.309588917E1
3.123934795E0,3.438486099E0,-1.219083309E1,-2.306381941E0,1.287474255E1
3.126311670E0,3.380161047E0,-1.193839073E1,-2.529512644E0,1.266290236E1
3.128688545E0,3.329612732E0,-1.168654537E1,-2.771187782E0,1.246359280E1
3.131065420E0,3.287140131E0,-1.143649578E1,-3.025724173E0,1.227818117E1
3.133442503E0,3.253341436E0,-1.118913746E1,-3.287140131E0,1.210728367E1
3.135819586E0,3.228515863E0,-1.094507027E1,-3.549154282E0,1.195049681E1
3.138196670E0,3.212663412E0,-1.070399284E1,-3.804588079E0,1.180557324E1
3.140573753E0,3.206083298E0,-1.046500969E1,-4.047160625E0,1.166940046E1
3.142950628E0,3.207578659E0,-1.022722340E1,-4.269692898E0,1.153754466E1
3.145327503E0,3.217149973E0,-9.989137650E0,-4.465904236E0,1.140514031E1
3.147704378E0,3.233899832E0,-9.749257088E0,-4.631009102E0,1.126731411E1
3.150081253E0,3.256332397E0,-9.505488396E0,-4.759623528E0,1.111809455E1
3.152458128E0,3.283251762E0,-9.256335258E0,-4.848755836E0,1.095307800E1
3.154835003E0,3.313162088E0,-8.999405861E0,-4.895116806E0,1.076701061E1
3.157211878E0,3.344268799E0,-8.733802795E0,-4.897809029E0,1.055708190E1
3.159588753E0,3.375375509E0,-8.458029747E0,-4.856532574E0,1.032072360E1
3.161965836E0,3.404089212E0,-8.170890808E0,-4.772185802E0,1.005609454E1
3.164342920E0,3.429512978E0,-7.871788502E0,-4.646861553E0,9.763192909E0
3.166720003E0,3.449553013E0,-7.560422421E0,-4.483850479E0,9.442685968E0
3.169097086E0,3.463311672E0,-7.236793041E0,-4.287040710E0,9.096395952E0
3.171473961E0,3.469293833E0,-6.901498795E0,-4.060619831E0,8.726701480E0
3.173850836E0,3.466601849E0,-6.554838657E0,-3.809971809E0,8.336613424E0
3.176227711E0,3.454637766E0,-6.198009014E0,-3.540779352E0,7.930129649E0
3.178604586E0,3.433401346E0,-5.832505226E0,-3.258127213E0,7.511441603E0
3.180981670E0,3.402892828E0,-5.459224701E0,-2.967997313E0,7.084618690E0
3.183358753E0,3.362813234E0,-5.079962254E0,-2.675773859E0,6.653893228E0
3.185735836E0,3.314657450E0,-4.695914268E0,-2.386242390E0,6.223561486E0
3.188112920E0,3.258426189E0,-4.308875561E0,-2.103889227E0,5.797421816E0
3.190489795E0,3.195315599E0,-3.920340776E0,-1.832603097E0,5.379363131E0
3.192866670E0,3.126222849E0,-3.532105207E0,-1.575972795E0,4.973200856E0
3.195243545E0,3.052344322E0,-3.145365477E0,-1.336092353E0,4.582059866E0
3.197620420E0,2.974577665E0,-2.761915445E0,-1.115055323E0,4.209469989E0
3.199997503E0,2.894119024E0,-2.383550406E0,-9.140582681E-1,3.859111294E0
3.202374586E0,2.811566591E0,-2.012064695E0,-7.336992621E-1,3.534349395E0
3.204751670E0,2.727518797E0,-1.649253011E0,-5.739783049E-1,3.238648696E0
3.207128753E0,2.642872572E0,-1.297209024E0,-4.342973232E-1,2.975926889E0
3.209505628E0,2.557329178E0,-9.577272534E-1,-3.140579760E-1,2.748782718E0
3.211882503E0,2.470888376E0,-6.334998012E-1,-2.117647976E-1,2.559581156E0
3.214259378E0,2.383849621E0,-3.260220885E-1,-1.259222925E-1,2.409333070E0
3.216636253E0,2.295315027E0,-3.798605874E-2,-5.533402413E-2,2.296296120E0
3.219013128E0,2.205285072E0,2.285145670E-1,1.794616925E-3,2.217093678E0
3.221390003E0,2.112862349E0,4.716851711E-1,4.725824669E-2,2.165388544E0
3.223766878E0,2.017448664E0,6.894320250E-1,8.225327730E-2,2.133584128E0
3.226143753E0,1.918744683E0,8.799605370E-1,1.082752272E-1,2.113678129E0
3.228520836E0,1.816152334E0,1.042373419E0,1.262213886E-1,2.097828278E0
3.230897920E0,1.709372640E0,1.175175071E0,1.375873089E-1,2.078923167E0
3.233275003E0,1.598106384E0,1.278365493E0,1.426720470E-1,2.051467197E0
3.235652086E0,1.482652783E0,1.351645708E0,1.420738399E-1,2.011315582E0
3.238028961E0,1.363310695E0,1.395912886E0,1.366899908E-1,1.955983893E0
3.240405836E0,1.240678549E0,1.411466241E0,1.268195957E-1,1.883508275E0
3.242782711E0,1.115653515E0,1.400698543E0,1.121635586E-1,1.794218447E0
3.245159586E0,9.891330600E-1,1.365404367E0,9.361918271E-2,1.688631946E0
3.247536670E0,8.629116416E-1,1.308275819E0,7.088737190E-2,1.568829863E0
3.249913753E0,7.381857634E-1,1.232303619E0,4.426721856E-2,1.437167359E0
3.252290836E0,6.167500615E-1,1.140778184E0,1.435693540E-2,1.296904632E0
3.254667920E0,5.000999570E-1,1.037288666E0,-1.914258115E-2,1.151709243E0
3.257044795E0,3.900300860E-1,9.254241586E-1,-5.533402413E-2,1.005780888E0
3.259421670E0,2.880360186E-1,8.093722463E-1,-9.361918271E-2,8.641832748E-1
3.261798545E0,1.956132501E-1,6.924230456E-1,-1.336989701E-1,7.318398953E-1
3.264175420E0,1.139581800E-1,5.778666735E-1,-1.743769497E-1,6.142667822E-1
3.266552503E0,4.396811500E-2,4.692923427E-1,-2.153540403E-1,5.182141070E-1
3.268929586E0,-1.375873014E-2,3.690928817E-1,-2.557329237E-1,4.492417904E-1
3.271306670E0,-5.862415582E-2,2.799602449E-1,-2.943171859E-1,4.104109359E-1
3.273683753E0,-9.092725813E-2,2.030908167E-1,-3.305086195E-1,3.984339264E-1
3.276060628E0,-1.109671518E-1,1.402792335E-1,-3.637090325E-1,4.053100449E-1
3.278437503E0,-1.199402362E-1,9.182456881E-2,-3.933202326E-1,4.213291078E-1
3.280814378E0,-1.184447184E-1,5.772684515E-2,-4.190430641E-1,4.392705653E-1
3.283191253E0,-1.082752272E-1,3.768695518E-2,-4.402793646E-1,4.549612624E-1
3.285568336E0,-9.122636169E-2,3.080759197E-2,-4.570291340E-1,4.670620795E-1
3.287945420E0,-6.849455088E-2,3.589234129E-2,-4.698905349E-1,4.762109600E-1
3.290322503E0,-4.277170449E-2,5.084748194E-2,-4.785645306E-1,4.831551460E-1
3.292699586E0,-1.555334684E-2,7.357929647E-2,-4.845465720E-1,4.903480395E-1
3.295076461E0,1.106680464E-2,1.025922745E-1,-4.878367186E-1,4.986304372E-1
3.297453336E0,3.469592705E-2,1.348953694E-1,-4.899304509E-1,5.093450842E-1
3.299830211E0,5.383851007E-2,1.686939895E-1,-4.920241535E-1,5.229187459E-1
3.302207086E0,6.699903309E-2,2.018944174E-1,-4.950151742E-1,5.387859026E-1
3.304583961E0,7.238288224E-2,2.321037948E-1,-5.003990531E-1,5.563368274E-1
3.306960836E0,6.909275055E-2,2.581257522E-1,-5.096712112E-1,5.754715073E-1
3.309337711E0,5.623133108E-2,2.781656384E-1,-5.243272781E-1,5.962022976E-1
3.311714586E0,3.290131316E-2,2.910270393E-1,-5.455635786E-1,6.192082463E-1
3.314091670E0,-2.991028305E-4,2.961117923E-1,-5.748756528E-1,6.466562450E-1
3.316468753E0,-4.396811500E-2,2.925225794E-1,-6.137589812E-1,6.813242559E-1
3.318845836E0,-9.750752151E-2,2.805584669E-1,-6.634100676E-1,7.268656601E-1
3.321222920E0,-1.597209126E-1,2.599203587E-1,-7.256234884E-1,7.871459901E-1
3.323599795E0,-2.297109663E-1,2.306082845E-1,-8.012964725E-1,8.648834291E-1
3.325976670E0,-3.059822023E-1,1.932204217E-1,-8.922237158E-1,9.628200239E-1
3.328353545E0,-3.873381615E-1,1.480558962E-1,-1.000199914E0,1.082751711E0
3.330730420E0,-4.716851711E-1,9.541380405E-2,-1.126421213E0,1.224914464E0
3.333107503E0,-5.569294691E-1,3.559323773E-2,-1.272981644E0,1.389935098E0
3.335484586E0,-6.406782866E-1,-3.170489892E-2,-1.441675663E0,1.577942516E0
3.337861670E0,-7.211369276E-1,-1.058823988E-1,-1.633699656E0,1.788917023E0
3.340238753E0,-7.956135273E-1,-1.878365725E-1,-1.850250125E0,2.022797317E0
3.342615628E0,-8.617152572E-1,-2.775674164E-1,-2.092822552E0,2.280241892E0
3.344992503E0,-9.170492887E-1,-3.762713671E-1,-2.360818624E0,2.560473417E0
3.347369378E0,-9.592227936E-1,-4.848456979E-1,-2.654537678E0,2.863870458E0
3.349746253E0,-9.858429432E-1,-6.044868231E-1,-2.972783089E0,3.189785247E0
3.352123336E0,-9.951151013E-1,-7.366902828E-1,-3.314059258E0,3.537789621E0
3.354500420E0,-9.849455953E-1,-8.829515576E-1,-3.675076485E0,3.905881264E0
3.356877503E0,-9.538389444E-1,-1.045364380E0,-4.051946163E0,4.291953300E0
3.359254586E0,-8.997012973E-1,-1.224826097E0,-4.438984871E0,4.691934364E0
3.361631461E0,-8.222336769E-1,-1.423430324E0,-4.829015255E0,5.101138151E0
3.364008336E0,-7.196413875E-1,-1.642373681E0,-5.213960648E0,5.513679413E0
3.366385211E0,-5.919244885E-1,-1.882553220E0,-5.584249973E0,5.922687649E0
3.368762086E0,-4.387838542E-1,-2.145165443E0,-5.929414749E0,6.320777272E0
3.371139170E0,-2.599203587E-1,-2.430509567E0,-6.238088608E0,6.699901852E0
3.373516253E0,-5.653043464E-2,-2.739183664E0,-6.499504566E0,7.053359656E0
3.375893336E0,1.704886109E-1,-3.072982550E0,-6.702595234E0,7.375437003E0
3.378270420E0,4.193421602E-1,-3.437887907E0,-6.838986397E0,7.665941302E0
3.380647295E0,6.885347366E-1,-3.834199190E0,-6.902096748E0,7.925534874E0
3.383024170E0,9.750752449E-1,-4.274777889E0,-6.890431881E0,8.167162864E0
3.385401045E0,1.275673628E0,-4.765007019E0,-6.799504757E0,8.400351185E0
3.387777920E0,1.586740494E0,-5.312963486E0,-6.632007122E0,8.644584713E0
3.390154795E0,1.904686809E0,-5.934200287E0,-6.393621922E0,8.928659819E0
3.392531670E0,2.225624084E0,-6.637989044E0,-6.089733601E0,9.279070883E0
3.394908545E0,2.544467688E0,-7.440182686E0,-5.730212212E0,9.729643683E0
3.397285420E0,2.858226538E0,-8.356334686E0,-5.329414368E0,1.031505918E1
3.399662503E0,3.162713289E0,-9.404091835E0,-4.904987335E0,1.106790854E1
3.402039586E0,3.454338551E0,-1.059930706E1,-4.473680973E0,1.201214329E1
3.404416670E0,3.731008768E0,-1.195663548E1,-4.055535316E0,1.316544435E1
3.406793753E0,3.990330935E0,-1.348744392E1,-3.669393539E0,1.453610448E1
3.409170628E0,4.232006073E0,-1.519741440E1,-3.331706524E0,1.612363322E1
3.411547503E0,4.454837322E0,-1.708714676E1,-3.057130098E0,1.792099898E1
3.413924378E0,4.659722805E0,-1.915035820E1,-2.857628345E0,1.991520212E1
3.416301253E0,4.848157883E0,-2.137358856E1,-2.740380049E0,2.208720457E1
3.418678336E0,5.021637440E0,-2.373500633E1,-2.708376169E0,2.441111775E1
3.421055420E0,5.183452129E0,-2.620499802E1,-2.761018276E0,2.685504271E1
3.423432503E0,5.336891651E0,-2.874527740E1,-2.891726255E0,2.937916722E1
3.425809586E0,5.485546112E0,-3.130978584E1,-3.090330362E0,3.193656286E1
3.428186461E0,5.633601665E0,-3.384498215E1,-3.341876030E0,3.447301002E1
3.430563336E0,5.784349442E0,-3.629134369E1,-3.627818346E0,3.692805696E1
3.432940211E0,5.940182209E0,-3.858576202E1,-3.927220106E0,3.923735278E1
3.435317086E0,6.103193283E0,-4.066362762E1,-4.217648983E0,4.133482966E1
3.437694170E0,6.273981094E0,-4.246063614E1,-4.476971149E0,4.315450997E1
3.440071253E0,6.451947212E0,-4.391696930E1,-4.683651447E0,4.463478919E1
3.442448336E0,6.635297298E0,-4.497848511E1,-4.819144726E0,4.571996772E1
3.444825420E0,6.821339130E0,-4.560031891E1,-4.868795872E0,4.636404777E1
3.447202295E0,7.005586624E0,-4.574867630E1,-4.822135925E0,4.653248996E1
3.449579170E0,7.182356358E0,-4.540351105E1,-4.674678326E0,4.620516936E1
3.451956045E0,7.344769001E0,-4.455884552E1,-4.427618980E0,4.537664769E1
3.454332920E0,7.486244678E0,-4.322574234E1,-4.089334011E0,4.405940663E1
3.456710003E0,7.599305630E0,-4.143082809E1,-3.672982693E0,4.228183729E1
3.459087086E0,7.676175117E0,-3.921627045E1,-3.198007345E0,4.008823747E1
3.461464170E0,7.710272789E0,-3.663979721E1,-2.687737942E0,3.753860655E1
3.463841253E0,7.696215153E0,-3.377229691E1,-2.169093609E0,3.470597547E1
3.466218128E0,7.629215717E0,-3.069542885E1,-1.671386600E0,3.167345604E1
3.468595003E0,7.506284714E0,-2.749891663E1,-1.223330617E0,2.853123312E1
3.470971878E0,7.327122211E0,-2.427638245E1,-8.533403873E-1,2.537237975E1
3.473348753E0,7.093223572E0,-2.112353897E1,-5.865406394E-1,2.229039590E1
3.475725836E0,6.807580471E0,-1.813251114E1,-4.447658956E-1,1.937340777E1
3.478102920E0,6.476473808E0,-1.538943863E1,-4.435695112E-1,1.670258328E1
3.480480003E0,6.107380867E0,-1.297059441E1,-5.931209326E-1,1.434880527E1
3.482857086E0,5.709873199E0,-1.093908787E1,-8.958129883E-1,1.237209668E1
3.485233961E0,5.295316696E0,-9.343374252E0,-1.347757339E0,1.082383810E1
3.487610836E0,4.875077248E0,-8.214560509E0,-1.937588096E0,9.746775372E0
3.489987711E0,4.461417675E0,-7.565207958E0,-2.647359133E0,9.173065436E0
3.492364586E0,4.066602230E0,-7.390532017E0,-3.453142166E0,9.114900329E0
3.494741461E0,3.702594042E0,-7.667201996E0,-4.326821327E0,9.550736719E0
3.497118336E0,3.379263878E0,-8.356036186E0,-5.235795021E0,1.042383397E1
3.499495211E0,3.105883837E0,-9.402895927E0,-6.146862507E0,1.165525139E1
3.501872086E0,2.889632463E0,-1.074197865E1,-7.025028229E0,1.315640918E1
3.504249170E0,2.734697104E0,-1.229880905E1,-7.837092400E0,1.483776565E1
3.506626253E0,2.644068956E0,-1.399322701E1,-8.551948547E0,1.661136137E1
3.509003336E0,2.617748022E0,-1.574297810E1,-9.143274307E0,1.839275480E1
3.511380420E0,2.653640270E0,-1.746730614E1,-9.588638306E0,2.010200425E1
3.513757086E0,2.747558594E0,-1.908993912E1,-9.872487068E0,2.166658382E1
3.516133753E0,2.892922640E0,-2.054238319E1,-9.985847473E0,2.302337200E1
3.518510420E0,3.082852840E0,-2.176690865E1,-9.926026344E0,2.412111715E1
3.520887086E0,3.307479143E0,-2.271715927E1,-9.698110580E0,2.492111740E1
3.523263753E0,3.558426380E0,-2.336142731E1,-9.313164711E0,2.539987640E1
3.525640420E0,3.824927092E0,-2.368146706E1,-8.788239479E0,2.554750677E1
3.528017086E0,4.098007679E0,-2.367488670E1,-8.145467758E0,2.537011179E1
3.530393753E0,4.368097782E0,-2.335185623E1,-7.411468983E0,2.488612746E1
3.532770420E0,4.627120972E0,-2.273630142E1,-6.614958286E0,2.412690042E1
3.535147086E0,4.867898464E0,-2.186262321E1,-5.786443233E0,2.313338831E1
3.537524795E0,5.084748268E0,-2.077448654E1,-4.956432819E0,2.195450255E1
3.539902503E0,5.273182869E0,-1.952214241E1,-4.154239178E0,2.064408402E1
3.542280211E0,5.430809975E0,-1.816002846E1,-3.406482220E0,1.925836057E1
3.544657920E0,5.556433201E0,-1.674317741E1,-2.736790895E0,1.785211372E1
3.547034795E0,5.650351524E0,-1.532662678E1,-2.164607286E0,1.647778764E1
3.549411670E0,5.713761330E0,-1.396032524E1,-1.703091502E0,1.518019335E1
3.551788545E0,5.749653816E0,-1.268943787E1,-1.361516118E0,1.399764546E1
3.554165420E0,5.761318684E0,-1.155165005E1,-1.143171072E0,1.295917636E1
3.556542503E0,5.752345562E0,-1.057507992E1,-1.045663476E0,1.208367522E1
3.558919586E0,5.726922035E0,-9.779465675E0,-1.061815023E0,1.138257598E1
3.561296670E0,5.689234734E0,-9.173184395E0,-1.179960608E0,1.085849947E1
3.563673753E0,5.642873764E0,-8.756235123E0,-1.384846091E0,1.050863819E1
3.566050628E0,5.591727257E0,-8.518448830E0,-1.657927036E0,1.032376415E1
3.568427503E0,5.538187981E0,-8.442476273E0,-1.978864312E0,1.028896670E1
3.570804378E0,5.484349728E0,-8.502895355E0,-2.326720953E0,1.038224214E1
3.573181253E0,5.431408405E0,-8.669795036E0,-2.680260420E0,1.057588479E1
3.575558336E0,5.380261898E0,-8.909674644E0,-3.019443035E0,1.083727625E1
3.577935420E0,5.330311775E0,-9.186943054E0,-3.326322556E0,1.112998509E1
3.580312503E0,5.280959606E0,-9.466604233E0,-3.585345745E0,1.141752312E1
3.582689586E0,5.230411053E0,-9.714560509E0,-3.783949852E0,1.166396854E1
3.585066461E0,5.176572800E0,-9.901201248E0,-3.913760424E0,1.183842104E1
3.587443336E0,5.117948532E0,-1.000139999E1,-3.969094515E0,1.191533089E1
3.589820211E0,5.051846981E0,-9.995418549E0,-3.949353695E0,1.187547660E1
3.592197086E0,4.976472855E0,-9.870692253E0,-3.856930971E0,1.170776512E1
3.594574170E0,4.889732838E0,-9.620642662E0,-3.697509289E0,1.140779678E1
3.596951253E0,4.790730000E0,-9.246166229E0,-3.480061531E0,1.097968634E1
3.599328336E0,4.678566456E0,-8.754141808E0,-3.215953588E0,1.043390341E1
3.601705420E0,4.552644253E0,-8.157431602E0,-2.917448997E0,9.786816065E0
3.604082295E0,4.413262367E0,-7.473981380E0,-2.599203587E0,9.060526568E0
3.606459170E0,4.261617184E0,-6.725327015E0,-2.274677038E0,8.280432362E0
3.608836045E0,4.098606110E0,-5.935396671E0,-1.957927108E0,7.474020621E0
3.611212920E0,3.926621914E0,-5.129015446E0,-1.661516190E0,6.669767248E0
3.613590003E0,3.747758389E0,-4.331906319E0,-1.396810174E0,5.895946400E0
3.615967086E0,3.564109325E0,-3.567399502E0,-1.172782183E0,5.177319049E0
3.618344170E0,3.378964663E0,-2.857329369E0,-9.960124493E-1,4.535832240E0
3.620721253E0,3.194717407E0,-2.219342947E0,-8.706883192E-1,3.986201272E0
3.623098128E0,3.014059305E0,-1.668096542E0,-7.980063558E-1,3.536087345E0
3.625475003E0,2.839383125E0,-1.212562919E0,-7.764709592E-1,3.183600558E0
3.627851878E0,2.672184706E0,-8.581260443E-1,-8.027920127E-1,2.919148236E0
3.630228753E0,2.514856577E0,-6.047859192E-1,-8.706883192E-1,2.729169793E0
3.632605836E0,2.368296146E0,-4.477569461E-1,-9.726824164E-1,2.599119852E0
3.634982920E0,2.233101845E0,-3.789632916E-1,-1.099501967E0,2.517789030E0
3.637360003E0,2.109572172E0,-3.864408433E-1,-1.241575837E0,2.478132731E0
3.639737086E0,1.997408748E0,-4.555336237E-1,-1.388734460E0,2.475022422E0
3.642113961E0,1.895713687E0,-5.700899959E-1,-1.530509233E0,2.502237299E0
3.644490836E0,1.804188251E0,-7.127620578E-1,-1.658226132E0,2.552026431E0
3.646867711E0,1.720439434E0,-8.659027219E-1,-1.763211131E0,2.611247377E0
3.649244586E0,1.643869162E0,-1.013061285E0,-1.838585138E0,2.666269735E0
3.651621670E0,1.572084427E0,-1.139581800E0,-1.879562140E0,2.702378574E0
3.653998753E0,1.503889084E0,-1.232303619E0,-1.882553220E0,2.706337232E0
3.656375836E0,1.438086390E0,-1.281655669E0,-1.846660852E0,2.668499583E0
3.658752920E0,1.372882009E0,-1.280459166E0,-1.772184253E0,2.581669559E0
3.661129795E0,1.307677627E0,-1.225125194E0,-1.661516190E0,2.443683401E0
3.663506670E0,1.241575837E0,-1.115653515E0,-1.519442320E0,2.257188137E0
3.665883545E0,1.173978567E0,-9.544371367E-1,-1.350748420E0,2.028225140E0
3.668260420E0,1.105184913E0,-7.477570772E-1,-1.162612677E0,1.769814277E0
3.670637295E0,1.035194874E0,-5.033900738E-1,-9.622138143E-1,1.500295110E0
3.673014170E0,9.649057388E-1,-2.312064916E-1,-7.570292354E-1,1.248035572E0
3.675391045E0,8.949156404E-1,5.712864175E-2,-5.551348329E-1,1.054662206E0
3.677767920E0,8.258228898E-1,3.493520916E-1,-3.634099364E-1,9.675211166E-1
3.680145003E0,7.594220638E-1,6.340979934E-1,-1.887338907E-1,1.007185493E0
3.682522086E0,6.966105103E-1,8.994022012E-1,-3.649054468E-2,1.138210034E0
3.684899170E0,6.385845542E-1,1.135394335E0,8.853443712E-2,1.305660321E0
3.687276253E0,5.862415433E-1,1.332802176E0,1.836491376E-1,1.467572075E0
3.689653128E0,5.404788256E-1,1.485344648E0,2.470589429E-1,1.599813804E0
3.692030003E0,5.021936297E-1,1.588235974E0,2.784647346E-1,1.688855992E0
3.694406878E0,4.713860750E-1,1.639681697E0,2.790629268E-1,1.728767485E0
3.696783753E0,4.486542344E-1,1.639681697E0,2.509472668E-1,1.718377496E0
3.699160836E0,4.336991012E-1,1.590927958E0,1.980060786E-1,1.660829036E0
3.701537920E0,4.259224236E-1,1.497906923E0,1.241276711E-1,1.562223653E0
3.703915003E0,4.250251353E-1,1.367498159E0,3.439682722E-2,1.432438733E0
3.706292086E0,4.301098585E-1,1.207179070E0,-6.610172242E-2,1.283216753E0
3.708668961E0,4.399802685E-1,1.025922656E0,-1.716850251E-1,1.129413866E0
3.711045836E0,4.537389874E-1,8.333004713E-1,-2.775674164E-1,9.885911262E-1
3.713422711E0,4.701896608E-1,6.385845542E-1,-3.786641955E-1,8.787804748E-1
3.715799586E0,4.881358147E-1,4.513461590E-1,-4.710869491E-1,8.148084698E-1
3.718176670E0,5.063810945E-1,2.793620527E-1,-5.509474277E-1,7.987540532E-1
3.720553753E0,5.240281820E-1,1.301097274E-1,-6.161518097E-1,8.192540078E-1
3.722930836E0,5.401797295E-1,9.571290575E-3,-6.652047038E-1,8.569615205E-1
3.725307920E0,5.542375445E-1,-7.806584239E-2,-6.969096065E-1,8.938436838E-1
3.727684795E0,5.659025311E-1,-1.304088384E-1,-7.118647099E-1,9.186966338E-1
3.730061670E0,5.745765567E-1,-1.468594968E-1,-7.112665176E-1,9.260701865E-1
3.732438545E0,5.802595019E-1,-1.280160099E-1,-6.969096065E-1,9.158450677E-1
3.734815420E0,5.832505226E-1,-7.657032460E-2,-6.714858413E-1,8.927135161E-1
3.737192503E0,5.838487148E-1,3.290131222E-3,-6.379863620E-1,8.648217995E-1
3.739569586E0,5.829514265E-1,1.070788130E-1,-5.997011662E-1,8.431724180E-1
3.741946670E0,5.808576941E-1,2.282154560E-1,-5.602195859E-1,8.386441079E-1
3.744323753E0,5.781657696E-1,3.607180119E-1,-5.225326419E-1,8.587394850E-1
3.746700628E0,5.760720372E-1,4.980062246E-1,-4.899304509E-1,9.054838699E-1
3.749077503E0,5.748756528E-1,6.337988973E-1,-4.651049078E-1,9.739125390E-1
3.751454378E0,5.757729411E-1,7.618148923E-1,-4.504488707E-1,1.055831708E0
3.753831253E0,5.793621540E-1,8.772686124E-1,-4.480560422E-1,1.142810107E0
3.756208336E0,5.859424472E-1,9.753743410E-1,-4.591228366E-1,1.226978987E0
3.758585420E0,5.961119533E-1,1.053440213E0,-4.839483798E-1,1.303568862E0
3.760962503E0,6.101697683E-1,1.108774185E0,-5.231308341E-1,1.369435362E0
3.763339586E0,6.284150481E-1,1.141077280E0,-5.763711333E-1,1.424488159E0
3.765716461E0,6.508477330E-1,1.150648594E0,-6.430711150E-1,1.470080072E0
3.768093336E0,6.771687865E-1,1.138385415E0,-7.226324677E-1,1.508865999E0
3.770470211E0,7.079764009E-1,1.107278705E0,-8.144569993E-1,1.546168464E0
3.772847086E0,7.420741320E-1,1.059721351E0,-9.182456732E-1,1.586460991E0
3.775224170E0,7.797610760E-1,9.996016622E-1,-1.033101201E0,1.635398701E0
3.777601253E0,8.201399446E-1,9.305089116E-1,-1.159920812E0,1.698202771E0
3.779978336E0,8.629116416E-1,8.560323119E-1,-1.298704505E0,1.778775200E0
3.782355420E0,9.074779749E-1,7.797610760E-1,-1.450947881E0,1.880636425E0
3.784732295E0,9.535398483E-1,7.049853802E-1,-1.618445396E0,2.006391819E0
3.787109170E0,1.000199914E0,6.334998012E-1,-1.802692771E0,2.156715812E0
3.789486045E0,1.047458172E0,5.667998791E-1,-2.006381750E0,2.333237762E0
3.791862920E0,1.094417214E0,5.054838061E-1,-2.232204437E0,2.536927190E0
3.794240003E0,1.140778184E0,4.492524564E-1,-2.482254505E0,2.768535725E0
3.796617086E0,1.186241865E0,3.960121572E-1,-2.759223700E0,3.029407667E0
3.798994170E0,1.230209947E0,3.433700502E-1,-3.064607620E0,3.320111349E0
3.801371253E0,1.272981644E0,2.877369225E-1,-3.398705482E0,3.640669411E0
3.803748128E0,1.314257860E0,2.252244353E-1,-3.761517286E0,3.990866079E0
3.806125003E0,1.353440285E0,1.507478207E-1,-4.151247978E0,4.368911224E0
3.808501878E0,1.391127229E0,5.892325938E-2,-4.563411713E0,4.771104000E0
3.810878753E0,1.427019596E0,-5.473581702E-2,-4.993521690E0,5.193711564E0
3.813255628E0,1.461117268E0,-1.959123611E-1,-5.434100151E0,5.630514166E0
3.815632503E0,1.494018674E0,-3.687937856E-1,-5.875576019E0,6.073754540E0
3.818009378E0,1.525723577E0,-5.775675774E-1,-6.307779789E0,6.515328281E0
3.820386253E0,1.556830287E0,-8.255237937E-1,-6.718148708E0,6.945410869E0
3.822763336E0,1.587637782E0,-1.114457130E0,-7.092924595E0,7.353379341E0
3.825140420E0,1.618146300E0,-1.445264935E0,-7.418049335E0,7.728819064E0
3.827517503E0,1.649552107E0,-1.817647934E0,-7.679165840E0,8.061913803E0
3.829894586E0,1.681556106E0,-2.230110645E0,-7.861618996E0,8.343025690E0
3.832271461E0,1.715354681E0,-2.679363251E0,-7.951947689E0,8.564747583E0
3.834648336E0,1.750349760E0,-3.164208889E0,-7.939385414E0,8.724092098E0
3.837025211E0,1.785344839E0,-3.687040567E0,-7.817949772E0,8.826214533E0
3.839402086E0,1.820339799E0,-4.247260094E0,-7.583453178E0,8.880406376E0
3.841779170E0,1.852343798E0,-4.846064091E0,-7.236494064E0,8.904064300E0
3.844156253E0,1.880160451E0,-5.488237858E0,-6.782754898E0,8.925330364E0
3.846533336E0,1.901396751E0,-6.180062771E0,-6.232106686E0,8.980403064E0
3.848910420E0,1.913959026E0,-6.924828529E0,-5.597111225E0,9.107367533E0
3.851287295E0,1.915155411E0,-7.733303547E0,-4.896313190E0,9.351239857E0
3.853664170E0,1.903490424E0,-8.615358353E0,-4.151547432E0,9.751052324E0
3.856041045E0,1.877468467E0,-9.585947037E0,-3.387638569E0,1.033882796E1
3.858417920E0,1.836192250E0,-1.065882874E1,-2.633002281E0,1.113170845E1
3.860795003E0,1.779661894E0,-1.185015488E1,-1.915753603E0,1.213521648E1
3.863172086E0,1.709671736E0,-1.317338562E1,-1.264008522E0,1.334386689E1
3.865549170E0,1.629512191E0,-1.464078426E1,-7.040880919E-1,1.474800373E1
3.867926253E0,1.543370605E0,-1.626162338E1,-2.581257522E-1,1.633673825E1
3.870303128E0,1.458126307E0,-1.804068565E1,5.563312769E-2,1.809960127E1
3.872680003E0,1.382453322E0,-1.997827530E1,2.243271172E-1,2.002730595E1
3.875056878E0,1.326221943E0,-2.206571388E1,2.425723970E-1,2.210686398E1
3.877433753E0,1.300499082E0,-2.428924370E1,1.109671518E-1,2.432428768E1
3.879810836E0,1.316650629E0,-2.662763023E1,-1.624128371E-1,2.666065713E1
3.882187920E0,1.386640668E0,-2.905036163E1,-5.635097623E-1,2.908889525E1
3.884565003E0,1.522433400E0,-3.152035332E1,-1.070489049E0,3.157525017E1
3.886942086E0,1.733600020E0,-3.399333572E1,-1.657627940E0,3.407785165E1
3.889318961E0,2.029412746E0,-3.641905975E1,-2.293819666E0,3.654761330E1
3.891695836E0,2.415853500E0,-3.874219131E1,-2.945863724E0,3.892906175E1
3.894072711E0,2.896212816E0,-4.090350723E1,-3.578765392E0,4.116178464E1
3.896449586E0,3.469892025E0,-4.284349060E1,-4.159324169E0,4.318454371E1
3.898826670E0,4.132404804E0,-4.450410843E1,-4.655535698E0,4.493736140E1
3.901203753E0,4.875376225E0,-4.583063126E1,-5.040481091E0,4.636402166E1
3.903580836E0,5.685645580E0,-4.677579498E1,-5.292624474E0,4.741638362E1
3.905957920E0,6.546762943E0,-4.730041885E1,-5.397609711E0,4.805542549E1
3.908334795E0,7.438388348E0,-4.737579346E1,-5.348855972E0,4.825355621E1
3.910711670E0,8.337192535E0,-4.698636246E1,-5.147559643E0,4.799712915E1
3.913088545E0,9.218647957E0,-4.612883377E1,-4.803890705E0,4.728562299E1
3.915465420E0,1.005613613E1,-4.481577301E1,-4.335196495E0,4.613429649E1
3.917842503E0,1.082363415E1,-4.307260132E1,-3.766003847E0,4.457109854E1
3.920219586E0,1.149631596E1,-4.093970108E1,-3.126821041E0,4.263802780E1
3.922596670E0,1.205115223E1,-3.847000885E1,-2.452044964E0,4.038792363E1
3.924973753E0,1.246929836E1,-3.572843170E1,-1.779063582E0,3.788362840E1
3.927350628E0,1.273549938E1,-3.278855133E1,-1.144367456E0,3.519363039E1
3.929727503E0,1.284018517E1,-2.973022270E1,-5.841478109E-1,3.238977810E1
3.932104378E0,1.277916813E1,-2.663750076E1,-1.304088384E-1,2.954455265E1
3.934481253E0,1.255394363E1,-2.359472656E1,1.902294010E-1,2.672730457E1
3.936858336E0,1.217228889E1,-2.068325996E1,3.571287692E-1,2.400186244E1
3.939235420E0,1.164706421E1,-1.797966957E1,3.580260873E-1,2.142547095E1
3.941612503E0,1.099711418E1,-1.555155277E1,1.884347796E-1,1.904790859E1
