"Time (s)","Acceleration x (m/s^2)","Acceleration y (m/s^2)","Acceleration z (m/s^2)","Absolute acceleration (m/s^2)"
-1.338958275E-3,-7.789501648E0,-2.067201233E-1,3.463198242E0,8.527180730E0
8.687041700E-3,-8.745114441E0,1.615740051E0,2.357447662E0,9.200282712E0
1.871304167E-2,-1.004022125E1,2.609972534E0,1.040336609E0,1.042594359E1
2.873904165E-2,-1.127575195E1,3.070864105E0,1.806742859E-1,1.168783263E1
3.876504162E-2,-1.228525269E1,3.478915558E0,-1.639091492E-1,1.276938343E1
4.879104171E-2,-1.259256363E1,3.710783386E0,-5.465135193E-1,1.313930170E1
5.881704169E-2,-1.214604218E1,3.989354095E0,-9.791139221E-1,1.282185442E1
6.884204166E-2,-1.085767136E1,4.004472656E0,-1.196461945E0,1.163427478E1
7.886804163E-2,-9.409882050E0,3.575165405E0,-1.233135681E0,1.014141565E1
8.889404172E-2,-8.700058136E0,2.759212189E0,-8.039781189E-1,9.162458419E0
9.892004170E-2,-8.498128052E0,1.478325806E0,-5.179229736E-1,8.641288780E0
1.089460417E-1,-8.481811981E0,4.173321533E-1,-3.863465881E-1,8.500856680E0
1.189720416E-1,-8.329728241E0,-3.879931641E-1,-5.270539856E-1,8.355399282E0
1.289980416E-1,-8.134534149E0,-1.250798950E0,-8.619076538E-1,8.275145234E0
1.390240417E-1,-8.236921234E0,-1.989812164E0,-1.179547119E0,8.555556982E0
1.490490417E-1,-8.655600586E0,-2.642005920E0,-1.437011719E0,9.163221020E0
1.590750417E-1,-9.264085236E0,-3.014281769E0,-1.773811340E0,9.902301576E0
1.691010416E-1,-9.711804199E0,-3.082240448E0,-2.224224701E0,1.042911897E1
1.791270417E-1,-9.870025177E0,-2.704276428E0,-2.483036499E0,1.053071594E1
1.891530417E-1,-9.777667236E0,-2.102677460E0,-2.545007629E0,1.031993667E1
1.991790417E-1,-9.649084625E0,-1.574425964E0,-2.366878052E0,1.005911343E1
2.092050416E-1,-9.498647461E0,-1.020877075E0,-2.116299133E0,9.784948422E0
2.192310416E-1,-9.241931305E0,-6.741979980E-1,-1.835333405E0,9.446495958E0
2.292560417E-1,-9.179211731E0,-5.140310669E-1,-1.645677795E0,9.339722231E0
2.392820417E-1,-9.270072784E0,-4.402345276E-1,-1.503024445E0,9.401443418E0
2.493080416E-1,-9.325457611E0,-3.909869385E-1,-1.504671021E0,9.454155981E0
2.593340416E-1,-9.147777100E0,-4.037104797E-1,-1.570983124E0,9.290468018E0
2.693600417E-1,-8.480315094E0,-1.701362000E0,-2.491119690E0,9.000891848E0
2.793860417E-1,-7.845335541E0,-2.293081512E0,-2.415826263E0,8.523129068E0
2.894120417E-1,-8.268355865E0,-1.825154572E0,-1.239871674E0,8.557697102E0
2.994370416E-1,-9.318571930E0,-1.953437805E0,-1.407373352E0,9.624572813E0
3.094630417E-1,-1.033346146E1,-8.568182373E-1,-1.375489655E0,1.045975788E1
3.194890417E-1,-1.094284424E1,7.092251587E-1,-8.105644226E-1,1.099571985E1
3.295150417E-1,-1.104657852E1,1.862726440E0,-1.332978058E0,1.128155474E1
3.395410416E-1,-1.017973114E1,2.650687866E0,-2.129920807E0,1.073264343E1
3.495670416E-1,-8.945547638E0,2.265838165E0,-2.530487823E0,9.568710141E0
3.595930417E-1,-8.484656067E0,1.613794098E0,-3.307971039E0,9.248588668E0
3.696190417E-1,-9.170679474E0,8.870553589E-1,-3.770209808E0,9.955034466E0
3.796440416E-1,-9.861343231E0,3.528163147E-1,-4.317022705E0,1.077066640E1
3.896700416E-1,-1.049273026E1,1.651066589E-1,-4.106260986E0,1.126880773E1
3.996964167E-1,-1.078507233E1,-1.173559570E-1,-3.512146454E0,1.134313582E1
4.097224167E-1,-1.084075653E1,-8.268804932E-1,-2.937641144E0,1.126212542E1
4.197484166E-1,-1.049003586E1,-1.749561768E0,-2.051932983E0,1.083107786E1
4.297744166E-1,-9.716743927E0,-2.535726929E0,-1.645528107E0,1.017608895E1
4.398004167E-1,-9.048533478E0,-2.745889893E0,-1.585502930E0,9.587997129E0
4.498264167E-1,-8.682095490E0,-2.183659058E0,-1.367705841E0,9.056366172E0
4.598514166E-1,-8.903784485E0,-1.547931061E0,-1.734892273E0,9.202354042E0
4.698774166E-1,-9.438322906E0,-2.068698120E0,-2.263443146E0,9.923942063E0
4.799034167E-1,-9.934091949E0,-3.566333771E0,-2.656376038E0,1.088399068E1
4.899294167E-1,-1.042611877E1,-5.457650757E0,-3.374732208E0,1.224249656E1
4.999554167E-1,-1.085946762E1,-7.028184814E0,-3.381917267E0,1.337014522E1
5.099814166E-1,-1.105151825E1,-8.103997650E0,-3.160976715E0,1.406423149E1
5.200074167E-1,-1.103550156E1,-8.039781189E0,-2.296224976E0,1.384532503E1
5.300334167E-1,-1.094029953E1,-7.194039917E0,-1.029409332E0,1.313407963E1
5.400584167E-1,-1.054167847E1,-6.772965546E0,-3.203338623E-2,1.253000692E1
5.500844166E-1,-9.756411438E0,-6.314768372E0,1.033750305E0,1.166758344E1
5.601104166E-1,-9.240584106E0,-6.343508606E0,1.860481110E0,1.136177301E1
5.701364167E-1,-8.862470398E0,-6.998396759E0,2.185006256E0,1.150196466E1
5.801624167E-1,-8.583151245E0,-7.540419617E0,2.458936615E0,1.168652141E1
5.901884167E-1,-7.888894958E0,-6.695277100E0,2.974464569E0,1.076609672E1
6.002144166E-1,-7.146438904E0,-5.508095856E0,2.982547760E0,9.502962701E0
6.102404167E-1,-6.904392242E0,-4.189487915E0,2.590513000E0,8.481344164E0
6.202654167E-1,-7.006479950E0,-2.935844879E0,2.473306732E0,7.989192239E0
6.302914167E-1,-6.888375549E0,-2.217937775E0,3.106340332E0,7.875170851E0
6.403174166E-1,-6.764732666E0,-1.755549316E0,3.222947845E0,7.696164906E0
6.503434167E-1,-6.810687103E0,-1.840722198E0,2.519560547E0,7.491455291E0
6.603694167E-1,-6.638245697E0,-2.155068512E0,1.466051331E0,7.131615015E0
6.703954167E-1,-7.155120850E0,-2.016307068E0,1.796114960E0,7.647697530E0
6.804214166E-1,-9.563462677E0,-1.954635315E0,4.167483673E0,1.061359212E1
6.904474166E-1,-1.278221924E1,-1.874102783E0,5.941295013E0,1.421957722E1
7.004724167E-1,-1.452085373E1,-1.926194458E0,6.640790405E0,1.608308165E1
7.104984167E-1,-1.601938751E1,-4.271966400E0,6.998247070E0,1.799571991E1
7.205244167E-1,-1.482891312E1,-6.034102020E0,5.317392426E0,1.686954989E1
7.305504166E-1,-9.604776764E0,-4.427193604E0,2.353406067E0,1.083468043E1
7.405764167E-1,-6.586004333E0,-1.168170776E0,-7.699987793E-1,6.732976620E0
7.506024167E-1,-5.690267029E0,6.924600220E-1,-3.002007294E0,6.470756334E0
7.606284167E-1,-6.713838501E0,-1.824106750E0,-3.438200226E0,7.760426125E0
7.706544166E-1,-7.544610901E0,-5.563031616E0,-3.737278290E0,1.009136876E1
7.806794167E-1,-6.884184265E0,-6.611750793E0,-3.672313385E0,1.022707813E1
7.907054167E-1,-6.093079376E0,-6.734645233E0,-3.565285950E0,9.756655503E0
8.007314167E-1,-5.980812836E0,-6.023923187E0,-4.246369629E0,9.491545067E0
8.107574166E-1,-6.824009399E0,-5.860612793E0,-2.875071259E0,9.443512129E0
8.207834166E-1,-7.637866974E0,-5.777385864E0,-9.717791748E-1,9.625983280E0
8.308094167E-1,-7.745642853E0,-6.137387238E0,1.570833435E0,1.000649904E1
8.408354167E-1,-7.571255493E0,-6.639892273E0,3.911815338E0,1.080344289E1
8.508614167E-1,-7.185058594E0,-7.004533997E0,5.082081757E0,1.124793841E1
8.608864166E-1,-6.366261292E0,-7.963439941E0,5.541476440E0,1.160403463E1
8.709124167E-1,-6.028862915E0,-7.101681976E0,4.886139221E0,1.051928854E1
8.809384167E-1,-7.165599060E0,-6.197711792E0,3.053949280E0,9.954097023E0
8.909644167E-1,-7.572153625E0,-7.492070160E0,2.565514984E0,1.095675558E1
9.009904166E-1,-8.062533875E0,-8.262518005E0,1.680405579E0,1.166607985E1
9.110164166E-1,-8.353678436E0,-7.700885925E0,-3.336561584E-1,1.136657001E1
9.210424167E-1,-7.590265961E0,-6.291117554E0,-3.213367767E0,1.036899368E1
9.310684167E-1,-6.863078156E0,-4.978646851E0,-4.638404388E0,9.664551800E0
9.410934167E-1,-7.124883728E0,-4.468807068E0,-5.011428680E0,9.790230956E0
9.511194166E-1,-7.702981567E0,-5.295537872E0,-4.635560303E0,1.043393817E1
9.611454167E-1,-7.660619659E0,-6.580465851E0,-3.509452057E0,1.069129918E1
9.711714167E-1,-7.342082062E0,-6.218817902E0,-2.334844666E0,9.901078967E0
9.811974167E-1,-7.189698944E0,-5.631289673E0,-9.936337280E-1,9.186430333E0
9.912234166E-1,-7.084318085E0,-5.012326813E0,2.630030823E-1,8.682174464E0
1.001249417E0,-6.932384033E0,-3.727249146E0,1.428778839E0,7.999483955E0
1.011275417E0,-8.360713806E0,-4.786296844E0,7.235952759E-1,9.660940066E0
1.021300417E0,-8.771609344E0,-5.440137177E0,-4.236190796E-1,1.033032798E1
1.031326417E0,-8.333919525E0,-4.962480469E0,-5.640270996E-1,9.715891808E0
1.041352417E0,-7.874075775E0,-4.552632751E0,-6.489006042E-1,9.118585761E0
1.051378417E0,-7.613018646E0,-4.166435852E0,-8.053253174E-1,8.715835559E0
1.061404417E0,-7.655380554E0,-3.954476624E0,-8.265811157E-1,8.655979040E0
1.071430417E0,-7.749534760E0,-3.921395416E0,-8.845106506E-1,8.730119707E0
1.081456417E0,-7.774083710E0,-3.992497559E0,-9.449848938E-1,8.790302084E0
1.091481417E0,-7.985893250E0,-4.361330566E0,-1.056203613E0,9.160309022E0
1.101507417E0,-8.229885864E0,-4.694088593E0,-1.310824127E0,9.564713741E0
1.111533417E0,-8.416398010E0,-4.892126770E0,-1.483714600E0,9.847338159E0
1.121559417E0,-8.438851318E0,-4.955894165E0,-1.703757019E0,9.933674372E0
1.131585417E0,-8.325836334E0,-4.850962372E0,-1.850302277E0,9.811982731E0
1.141611417E0,-8.155789948E0,-4.784350891E0,-2.014959869E0,9.667832559E0
1.151637417E0,-7.952812042E0,-4.877457275E0,-1.970053253E0,9.535088813E0
1.161663417E0,-7.811056824E0,-4.834646301E0,-1.820364532E0,9.364835321E0
1.171689417E0,-7.805668030E0,-4.856650543E0,-2.019899597E0,9.412518381E0
1.181714417E0,-7.889942780E0,-5.001399536E0,-2.299967194E0,9.620553179E0
1.191740417E0,-7.863298187E0,-5.090314636E0,-2.309098206E0,9.647522791E0
1.201766417E0,-7.938741302E0,-5.097799072E0,-2.007176056E0,9.645720531E0
1.211792417E0,-8.236921234E0,-5.040468292E0,-1.708696747E0,9.806775035E0
1.221818417E0,-8.507708130E0,-4.984933777E0,-1.357826385E0,9.953610143E0
1.231844417E0,-8.523126068E0,-4.958738251E0,-1.305734711E0,9.946743495E0
1.241870417E0,-8.652457123E0,-4.919070740E0,-1.161285095E0,1.002052166E1
1.251896417E0,-8.391100616E0,-5.117408295E0,-9.834548950E-1,9.877531106E0
1.261921417E0,-8.054300995E0,-5.373525696E0,-1.068478088E0,9.741056839E0
1.271947417E0,-8.075556793E0,-5.775290222E0,-1.184636536E0,9.998597821E0
1.281973417E0,-8.431067505E0,-6.179150391E0,-1.373992767E0,1.054289595E1
1.291999417E0,-8.893156586E0,-6.340365143E0,-1.616189117E0,1.104085737E1
1.302025417E0,-9.257947998E0,-6.154451752E0,-1.873803406E0,1.127377562E1
1.312051417E0,-9.316625977E0,-5.731431427E0,-2.083367615E0,1.113504586E1
1.322077417E0,-9.237440643E0,-5.327720947E0,-2.295326843E0,1.090795331E1
1.332103417E0,-9.080866241E0,-5.130281525E0,-2.495610352E0,1.072427113E1
1.342128417E0,-9.042845306E0,-5.127437439E0,-2.720442810E0,1.074543973E1
1.352154417E0,-9.236542511E0,-5.308560791E0,-3.021766205E0,1.107364467E1
1.362180417E0,-9.565408630E0,-5.661676483E0,-3.364104309E0,1.161330361E1
1.372206417E0,-1.008078690E1,-6.108497314E0,-3.804787903E0,1.238597654E1
1.382232417E0,-1.088835754E1,-6.585704956E0,-4.285288696E0,1.342726849E1
1.392258417E0,-1.143008102E1,-6.806346130E0,-4.217928772E0,1.395578815E1
1.402284000E0,-1.133233429E1,-6.504573669E0,-3.117417297E0,1.343315189E1
1.412310000E0,-1.119566849E1,-6.090534668E0,-1.701811066E0,1.285821785E1
1.422335000E0,-1.128847549E1,-5.835914154E0,-6.996450806E-1,1.272702150E1
1.432361000E0,-1.148426834E1,-5.705984344E0,-4.879852295E-2,1.282376926E1
1.442387000E0,-1.119566849E1,-5.469925232E0,2.618055725E-1,1.246321054E1
1.452413000E0,-1.075034454E1,-5.259911957E0,3.912863159E-1,1.197454327E1
1.462439000E0,-1.033256332E1,-5.004542999E0,3.866459656E-1,1.148724556E1
1.472465000E0,-9.507928162E0,-4.530179443E0,3.754193115E-1,1.053869837E1
1.482491000E0,-8.316555634E0,-4.164489899E0,3.370989990E-1,9.307078460E0
1.492517000E0,-7.150779877E0,-4.054468689E0,2.725831604E-1,8.224759618E0
1.502542000E0,-6.129154358E0,-4.349804535E0,4.616400146E-1,7.529969730E0
1.512568000E0,-5.421875153E0,-5.047353973E0,4.306544495E-1,7.420106169E0
1.522594000E0,-5.325924683E0,-5.890550537E0,4.787045288E-1,7.955703450E0
1.532620000E0,-5.186265106E0,-6.707701263E0,4.912783813E-1,8.493053423E0
1.542646000E0,-5.109923859E0,-7.338938599E0,5.367837524E-1,8.958765450E0
1.552672000E0,-5.151836700E0,-7.801177368E0,6.339317322E-1,9.370253954E0
1.562698000E0,-5.626050568E0,-7.925718384E0,8.589138794E-1,9.757417176E0
1.572724000E0,-6.739285583E0,-7.637118530E0,1.262923737E0,1.026345585E1
1.582750000E0,-7.109765167E0,-7.223977661E0,1.733844452E0,1.028303606E1
1.592775000E0,-6.960226135E0,-6.713090057E0,2.126178589E0,9.901058598E0
1.602801000E0,-6.923851776E0,-6.194119263E0,2.400558014E0,9.595286115E0
1.612827000E0,-7.069648590E0,-5.613177338E0,2.619702301E0,9.399496325E0
1.622853000E0,-7.308402100E0,-5.069657593E0,2.640059967E0,9.278151000E0
1.632879000E0,-7.617958374E0,-4.640649719E0,2.583477631E0,9.286725810E0
1.642905000E0,-7.920628967E0,-4.280798035E0,2.526446228E0,9.351177765E0
1.652931000E0,-8.315956879E0,-4.016447754E0,2.488275604E0,9.564439704E0
1.662956000E0,-8.631650391E0,-3.897594910E0,2.402653656E0,9.770843318E0
1.672982000E0,-8.661288757E0,-3.744762726E0,2.134860535E0,9.674647297E0
1.683008000E0,-8.400081940E0,-3.604055328E0,1.630409546E0,9.284870849E0
1.693034000E0,-7.956853638E0,-3.707190857E0,1.059496765E0,8.841793780E0
1.703060000E0,-7.605983276E0,-4.039499817E0,5.525010681E-1,8.629820265E0
1.713086000E0,-7.243736572E0,-4.539909210E0,1.799258423E-1,8.550723272E0
1.723112000E0,-6.826404419E0,-5.060376892E0,-1.339714050E-1,8.498538693E0
1.733138000E0,-6.441105652E0,-5.577252045E0,-4.963677979E-1,8.534633172E0
1.743164000E0,-6.125112762E0,-6.167923737E0,-8.318202209E-1,8.732251397E0
1.753189000E0,-5.841901703E0,-6.669231262E0,-1.160836029E0,8.941700142E0
1.763215000E0,-5.692512360E0,-6.986721039E0,-1.543290710E0,9.143342608E0
1.773241000E0,-5.821244659E0,-7.260501709E0,-1.809886322E0,9.480372511E0
1.783267000E0,-5.949827271E0,-7.441026306E0,-2.158062286E0,9.768651384E0
1.793293000E0,-6.326144714E0,-7.593259735E0,-3.283721466E0,1.041443839E1
1.803319000E0,-6.771618347E0,-7.734416199E0,-5.013374634E0,1.143721707E1
1.813345000E0,-6.845564575E0,-7.498656464E0,-5.572761383E0,1.158219636E1
1.823371000E0,-6.696474609E0,-6.429130554E0,-4.373455353E0,1.026175441E1
1.833396000E0,-6.807543640E0,-5.313500519E0,-2.491119690E0,8.987859338E0
1.843422000E0,-7.137158203E0,-4.859045563E0,-9.976753235E-1,8.691645819E0
1.853448000E0,-7.294930115E0,-4.607718201E0,-4.046086121E-1,8.637753210E0
1.863474000E0,-7.260651398E0,-4.304149475E0,-6.494993591E-1,8.465495310E0
1.873500000E0,-7.099736023E0,-4.012855225E0,-1.340163116E0,8.264701799E0
1.883526000E0,-6.881789246E0,-3.961511993E0,-2.212698669E0,8.243096257E0
1.893552000E0,-6.948400726E0,-4.120631104E0,-2.928210754E0,8.592688262E0
1.903578000E0,-7.244784393E0,-4.485721893E0,-3.318748627E0,9.144544508E0
1.913603000E0,-7.420369263E0,-4.926255798E0,-3.333717499E0,9.510181310E0
1.923629000E0,-7.353757782E0,-5.259762268E0,-3.257825317E0,9.610217398E0
1.933655000E0,-7.173682251E0,-5.459147644E0,-3.181933136E0,9.559744166E0
1.943681000E0,-7.013515320E0,-5.651647339E0,-3.018622742E0,9.499610415E0
1.953707000E0,-7.012617188E0,-5.853727112E0,-2.800975342E0,9.554495475E0
1.963733000E0,-7.199279022E0,-5.911207581E0,-2.577490082E0,9.665166766E0
1.973759000E0,-7.410489807E0,-5.893993378E0,-2.427352295E0,9.774791879E0
1.983785000E0,-7.739056549E0,-5.943540344E0,-2.583477631E0,1.009420749E1
1.993811000E0,-8.176746368E0,-6.050867157E0,-2.782114563E0,1.054572596E1
2.003836000E0,-8.584797821E0,-6.306385803E0,-3.094814301E0,1.109266114E1
2.013862000E0,-8.972341919E0,-6.546336823E0,-3.385509796E0,1.161116367E1
2.023888000E0,-9.232051849E0,-6.795718231E0,-3.775299225E0,1.206919433E1
2.033914000E0,-9.447902985E0,-7.025191040E0,-4.362827454E0,1.255589277E1
2.043940000E0,-9.822573853E0,-7.019353180E0,-4.927303619E0,1.303965479E1
2.053966000E0,-1.017389328E1,-6.530469818E0,-5.376369781E0,1.323104276E1
2.063992000E0,-1.052790710E1,-5.387147369E0,-5.252277832E0,1.294003892E1
2.074018000E0,-1.058433975E1,-4.590653687E0,-3.997736664E0,1.221000605E1
2.084043000E0,-1.020173538E1,-4.776567078E0,-2.188898163E0,1.147528967E1
2.094069000E0,-9.279652863E0,-5.653742981E0,-8.804690552E-1,1.090192610E1
2.104095000E0,-9.073232117E0,-7.026837616E0,-4.394860840E-1,1.148447369E1
2.114121000E0,-9.340725861E0,-8.540190582E0,-5.409750366E-1,1.266793862E1
2.124147000E0,-9.322763214E0,-9.836644592E0,-8.502319336E-1,1.357926306E1
2.134173000E0,-9.238338776E0,-1.064032333E1,-7.566764832E-1,1.411155354E1
2.144199000E0,-8.544681244E0,-1.110735214E1,-3.761677551E-1,1.401878566E1
2.154225000E0,-7.642507324E0,-1.108220444E1,-2.380050659E-2,1.346193671E1
2.164251000E0,-7.529043274E0,-9.588610382E0,4.086502075E-2,1.219137448E1
2.174276000E0,-7.874375153E0,-6.931785278E0,1.451980591E-2,1.049074078E1
2.184302000E0,-7.619604950E0,-4.941224670E0,5.724096680E-1,9.099545794E0
2.194328000E0,-7.216044159E0,-3.668720856E0,1.281934204E0,8.195984463E0
2.204354000E0,-6.898105316E0,-2.818339233E0,1.960173798E0,7.705139473E0
2.214380000E0,-6.727310486E0,-2.311193848E0,2.501747589E0,7.540362350E0
2.224406000E0,-6.626420288E0,-2.037113800E0,3.094514923E0,7.591791691E0
2.234432000E0,-6.431525574E0,-1.572480011E0,3.837569733E0,7.652722133E0
2.244458000E0,-6.201603699E0,-8.637039185E-1,4.714745636E0,7.838029045E0
2.254483000E0,-6.289470978E0,-2.736309814E-1,5.406457214E0,8.298319029E0
2.264509000E0,-7.241940308E0,-5.692662048E-1,5.655090179E0,9.205965912E0
2.274535000E0,-8.841364288E0,-2.120490417E0,5.411696320E0,1.058076836E1
2.284561000E0,-9.796977081E0,-4.291276245E0,4.936584320E0,1.177988440E1
2.294587000E0,-9.929002533E0,-6.017187195E0,4.150269470E0,1.232949187E1
2.304613000E0,-9.397757263E0,-6.946903839E0,3.112776947E0,1.209407685E1
2.314639000E0,-8.582702179E0,-7.318131866E0,2.064806213E0,1.146652761E1
2.324665000E0,-7.985294495E0,-7.394473114E0,1.240470428E0,1.095362623E1
2.334691000E0,-7.748786316E0,-7.145690460E0,7.111711121E-1,1.056457978E1
2.344716000E0,-7.805817719E0,-6.593488770E0,4.240681458E-1,1.022666701E1
2.354742000E0,-7.946974182E0,-5.699996796E0,1.248403931E-1,9.780590332E0
2.364768000E0,-8.000712433E0,-4.688550110E0,3.442840576E-2,9.273353594E0
2.374794000E0,-7.923173676E0,-3.759881287E0,1.386117554E-1,8.771123166E0
2.384820000E0,-7.940836945E0,-3.043471069E0,1.942959595E-1,8.506312859E0
2.394846000E0,-8.202492828E0,-2.531385956E0,1.951940918E-1,8.586437223E0
2.404872000E0,-8.513695679E0,-2.280058594E0,1.648072815E-1,8.815261921E0
2.414898000E0,-8.692124634E0,-2.215093689E0,-3.682342529E-2,8.970007060E0
2.424924000E0,-8.804690552E0,-2.261497192E0,-4.158352661E-1,9.099992540E0
2.434949000E0,-8.676856384E0,-2.367177429E0,-8.342152405E-1,9.032567783E0
2.444975000E0,-8.360264740E0,-2.577041016E0,-1.281185760E0,8.841753439E0
2.455001000E0,-8.096363525E0,-2.800975342E0,-1.730700989E0,8.740245484E0
2.465027000E0,-7.909402313E0,-3.024161224E0,-2.243235168E0,8.759925804E0
2.475053000E0,-7.714058533E0,-3.302582245E0,-3.041824493E0,8.925606130E0
2.485079000E0,-7.500602417E0,-3.606749725E0,-3.403921509E0,8.991905351E0
2.495105000E0,-7.341333618E0,-3.821253662E0,-2.772085419E0,8.728208087E0
2.505131000E0,-7.259453888E0,-3.972139893E0,-1.776056671E0,8.463565642E0
2.515156000E0,-7.262597351E0,-4.117787018E0,-1.229094086E0,8.438729909E0
2.525182000E0,-7.262896729E0,-4.230652313E0,-1.197210388E0,8.490076596E0
2.535208000E0,-7.254214783E0,-4.245022430E0,-1.651665344E0,8.565736743E0
2.545234000E0,-7.310647430E0,-4.121978302E0,-2.245181122E0,8.687756284E0
2.555260000E0,-7.545509033E0,-4.205654297E0,-2.556383972E0,9.008736518E0
2.565286000E0,-7.781717834E0,-4.403393097E0,-2.603086853E0,9.312414530E0
2.575312000E0,-8.013585663E0,-4.614603882E0,-2.607876892E0,9.607973046E0
2.585338000E0,-8.180937653E0,-4.800217896E0,-2.644550629E0,9.847003643E0
2.595364000E0,-8.492140503E0,-4.911735992E0,-2.604883118E0,1.015022250E1
2.605389000E0,-9.034762115E0,-4.896916809E0,-2.262095947E0,1.052253766E1
2.615415000E0,-9.647737427E0,-4.708458710E0,-1.652413788E0,1.086180888E1
2.625441000E0,-9.728419647E0,-4.282145233E0,-8.502319336E-1,1.066310513E1
2.635467000E0,-9.546697540E0,-3.919748840E0,-2.071691895E-1,1.032215016E1
2.645493000E0,-9.399104462E0,-3.597918091E0,8.681945801E-3,1.006420661E1
2.655519000E0,-9.195827179E0,-3.342100067E0,-1.933978271E-1,9.786228747E0
2.665545000E0,-9.293873291E0,-3.390599213E0,-9.389973450E-1,9.937502694E0
2.675571000E0,-9.528285828E0,-3.709286499E0,-1.815873871E0,1.038481753E1
2.685596000E0,-9.675130463E0,-4.272116089E0,-2.495460663E0,1.086675891E1
2.695622000E0,-9.823022919E0,-4.961582336E0,-3.107238464E0,1.143520920E1
2.705648000E0,-1.010518616E1,-5.607040100E0,-3.850892029E0,1.218125837E1
2.715674000E0,-1.054497162E1,-6.151607666E0,-4.509073334E0,1.301424011E1
2.725700000E0,-1.136541550E1,-6.578370209E0,-4.231849823E0,1.379696260E1
2.735726000E0,-1.234393066E1,-6.681655426E0,-2.622097321E0,1.427909443E1
2.745752000E0,-1.261456787E1,-6.008056183E0,-7.436535645E-1,1.399203639E1
2.755778000E0,-1.213526459E1,-4.917274475E0,3.403921509E-1,1.309809535E1
2.765804000E0,-1.169038971E1,-4.394262085E0,5.876779175E-1,1.250280433E1
2.775830000E0,-1.140897491E1,-4.287534027E0,6.387217712E-1,1.220473769E1
2.785855000E0,-1.077908478E1,-4.301754456E0,6.842271423E-1,1.162591617E1
2.795881000E0,-1.004546036E1,-4.402045898E0,4.623884583E-1,1.097738972E1
2.805907000E0,-9.167985077E0,-4.487667847E0,9.041198730E-2,1.020780522E1
2.815933000E0,-8.303083649E0,-4.563560028E0,-2.350112915E-1,9.477473741E0
2.825959000E0,-7.447612610E0,-4.801565094E0,-4.397854614E-1,8.872168404E0
2.835985000E0,-6.668931885E0,-5.315147095E0,-5.569917297E-1,8.546091558E0
2.846011000E0,-6.135291595E0,-6.090534668E0,-6.134243774E-1,8.666758620E0
2.856037000E0,-5.920039215E0,-6.941964111E0,-6.310876465E-1,9.145272093E0
2.866062000E0,-5.921536102E0,-7.674391022E0,-5.504054260E-1,9.708955325E0
2.876088000E0,-6.068380737E0,-8.329279175E0,-2.865042114E-1,1.030942389E1
2.886114000E0,-6.442153473E0,-8.948391724E0,2.007325745E-1,1.102793496E1
2.896140000E0,-7.575596466E0,-8.991951141E0,1.157093811E0,1.181455514E1
2.906166000E0,-8.591833191E0,-8.213270416E0,2.136806488E0,1.207656203E1
2.916192000E0,-8.565937042E0,-6.808292084E0,2.854114838E0,1.130814264E1
2.926218000E0,-8.052355042E0,-5.178032227E0,3.251538391E0,1.011063506E1
2.936244000E0,-7.788004761E0,-3.894750824E0,3.305126953E0,9.313751463E0
2.946270000E0,-8.099357300E0,-3.283571777E0,3.162623291E0,9.294278798E0
2.956295000E0,-8.369545441E0,-3.196752319E0,2.866089935E0,9.406539629E0
2.966321000E0,-8.508007507E0,-3.681594086E0,2.342029724E0,9.561664603E0
2.976347000E0,-8.337961121E0,-4.412973175E0,2.022893372E0,9.648213590E0
2.986373000E0,-7.762557678E0,-4.956043854E0,1.921853485E0,9.408145046E0
2.996399000E0,-7.133116608E0,-5.379662933E0,1.830094299E0,9.119833933E0
3.006425000E0,-6.866670685E0,-5.556595001E0,1.524729309E0,8.963911745E0
3.016451000E0,-6.879094849E0,-5.398374023E0,1.083446960E0,8.811256741E0
3.026477000E0,-6.715784454E0,-5.094954987E0,6.408174133E-1,8.454050752E0
3.036503000E0,-6.600524139E0,-4.804858246E0,3.300636292E-1,8.170833720E0
3.046528000E0,-6.420448608E0,-4.645589447E0,3.040177917E-1,7.930705420E0
3.056554000E0,-6.091283112E0,-4.695585480E0,1.686991882E-1,7.692900127E0
3.066580000E0,-5.911357269E0,-4.855003967E0,1.043330383E-1,7.650234877E0
3.076606000E0,-6.043532410E0,-5.157674561E0,1.182540894E-1,7.946060338E0
3.086632000E0,-6.516698456E0,-5.412594452E0,1.056802368E-1,8.471995383E0
3.096658000E0,-7.113956451E0,-5.461991730E0,3.382965088E-2,8.968995177E0
3.106684000E0,-7.523205414E0,-5.307662659E0,-6.316864014E-2,9.207273911E0
3.116710000E0,-7.788004761E0,-5.088817749E0,-8.262817383E-2,9.303542962E0
3.126736000E0,-8.043074341E0,-4.746329956E0,-1.546284485E-1,9.340374878E0
3.136761000E0,-8.170309753E0,-4.355193329E0,-1.428030396E-1,9.259701027E0
3.146787000E0,-8.095166016E0,-4.029021606E0,-2.140548706E-2,9.042410415E0
3.156813000E0,-7.935897217E0,-3.757186890E0,2.544708252E-1,8.784057910E0
3.166839000E0,-7.820038147E0,-3.660038910E0,5.539979553E-1,8.651924363E0
3.176865000E0,-7.913593597E0,-3.750750275E0,7.232958984E-1,8.787277633E0
3.186891000E0,-8.087831268E0,-3.914360046E0,5.972579956E-1,9.005106680E0
3.196917000E0,-8.055199127E0,-4.049079895E0,4.123924255E-1,9.025040082E0
3.206943000E0,-8.077652435E0,-4.191284180E0,2.318678284E-1,9.103246379E0
3.216969000E0,-8.346942444E0,-4.338428192E0,6.182144165E-2,9.407296595E0
3.226994000E0,-8.710835724E0,-4.472100220E0,-9.460327148E-2,9.792205531E0
3.237020000E0,-9.046886902E0,-4.645739136E0,-3.956272888E-1,1.017769992E1
3.247046000E0,-9.274264069E0,-4.872667236E0,-7.617658997E-1,1.050405385E1
3.257072000E0,-9.152567139E0,-5.340444489E0,-9.011260986E-1,1.063493586E1
3.267098000E0,-8.784931641E0,-6.130202179E0,-7.729925537E-1,1.074020112E1
3.277124000E0,-8.363108826E0,-7.165748749E0,-9.656419373E-1,1.105540631E1
3.287150000E0,-8.219557343E0,-8.095315704E0,-1.261875916E0,1.160549827E1
3.297176000E0,-8.413404236E0,-8.765621796E0,-1.752555542E0,1.227570557E1
3.307202000E0,-8.791817322E0,-9.096284180E0,-2.434237976E0,1.288269973E1
3.317227000E0,-9.390123138E0,-9.071884918E0,-3.095862122E0,1.341856441E1
3.327253000E0,-9.998009033E0,-8.655301208E0,-3.615281982E0,1.370929201E1
3.337279000E0,-1.048105453E1,-7.817493439E0,-3.838168488E0,1.362707765E1
3.347305000E0,-1.065469345E1,-6.625821533E0,-3.383863220E0,1.299517348E1
3.357331000E0,-1.051024384E1,-5.388644257E0,-2.549348602E0,1.208312421E1
3.367357000E0,-1.007614655E1,-4.375251617E0,-1.672621765E0,1.111167042E1
3.377383000E0,-9.577683105E0,-3.759581909E0,-7.203021240E-1,1.031432523E1
3.387409000E0,-9.542506256E0,-3.649710388E0,1.272354126E-2,1.021665177E1
3.397435000E0,-9.824968872E0,-4.208049316E0,5.547463989E-1,1.070259015E1
3.407461167E0,-1.010458740E1,-5.520969086E0,1.373992767E0,1.159619085E1
3.417486167E0,-1.062236069E1,-6.747518463E0,2.208058319E0,1.277650475E1
3.427512167E0,-1.105181763E1,-7.117848358E0,2.729274445E0,1.342592183E1
3.437538167E0,-1.038869659E1,-6.485712891E0,3.106190643E0,1.263478963E1
3.447564167E0,-9.043893127E0,-5.626948700E0,3.556005249E0,1.122941352E1
3.457590167E0,-8.153843994E0,-4.614603882E0,3.907174988E0,1.015114561E1
3.467616167E0,-7.724536743E0,-3.478316803E0,4.112098846E0,9.416820727E0
3.477642167E0,-7.504793701E0,-2.503543854E0,4.219575348E0,8.966296696E0
3.487668167E0,-7.274422760E0,-1.738484802E0,4.309538269E0,8.632014596E0
3.497694167E0,-7.049889679E0,-1.205892334E0,4.337829437E0,8.364919906E0
3.507719167E0,-6.919211426E0,-8.973838806E-1,4.579427032E0,8.345773573E0
3.517745167E0,-6.699917450E0,-8.939410400E-1,4.940775604E0,8.372531755E0
3.527771167E0,-6.427034912E0,-1.187181244E0,5.218148804E0,8.363327926E0
3.537797167E0,-6.572981415E0,-2.027084656E0,4.908293152E0,8.450118256E0
3.547823167E0,-6.848258972E0,-3.201692047E0,4.131857758E0,8.615203506E0
3.557849167E0,-7.099586334E0,-4.282145233E0,3.238216095E0,8.900951488E0
3.567875167E0,-7.384144592E0,-5.194647675E0,2.385439453E0,9.338108867E0
3.577901167E0,-7.766299896E0,-5.952072601E0,1.597927094E0,9.914431568E0
3.587927167E0,-8.179440765E0,-6.524033203E0,9.029223633E-1,1.050150129E1
3.597952167E0,-8.503217468E0,-6.793023834E0,1.820214844E-1,1.088499021E1
3.607978167E0,-8.584648132E0,-6.634204102E0,-4.740641785E-1,1.085972304E1
3.618004167E0,-8.509953461E0,-6.121370544E0,-8.137078857E-1,1.051439992E1
3.628030167E0,-8.463250580E0,-5.417234802E0,-7.767347717E-1,1.007850982E1
3.638056167E0,-8.586594086E0,-4.601281586E0,-5.049000549E-1,9.754809803E0
3.648082167E0,-8.618328094E0,-3.830384674E0,-1.672023010E-1,9.432676317E0
3.658108167E0,-8.641679535E0,-3.137625275E0,1.094224548E-1,9.194307523E0
3.668134167E0,-8.728798370E0,-2.549498291E0,2.275268555E-1,9.096352620E0
3.678160167E0,-8.739575958E0,-2.218835907E0,2.659968567E-1,9.020763551E0
3.688185167E0,-8.758586426E0,-2.103874969E0,1.740879822E-1,9.009408010E0
3.698211167E0,-8.809630280E0,-2.186503143E0,-1.058299255E-1,9.077531693E0
3.708237167E0,-8.802295532E0,-2.380649414E0,-4.263134766E-1,9.128507077E0
3.718263167E0,-8.571774902E0,-2.576142883E0,-7.864645386E-1,8.985007713E0
3.728289167E0,-8.206833801E0,-2.803969116E0,-1.196611633E0,8.754784021E0
3.738315167E0,-7.840246124E0,-3.147055664E0,-1.620679779E0,8.602326522E0
3.748341167E0,-7.633975067E0,-3.619323578E0,-2.156266022E0,8.719321169E0
3.758367167E0,-7.593259735E0,-4.083657990E0,-2.450404358E0,8.963165596E0
3.768393167E0,-7.581434326E0,-4.369264069E0,-2.240391083E0,9.032605778E0
3.778419167E0,-7.561825104E0,-4.495152283E0,-1.847009125E0,8.988828380E0
3.788444167E0,-7.632328491E0,-4.555776215E0,-1.621128845E0,9.035241770E0
3.798470167E0,-7.802225189E0,-4.522994385E0,-1.776655426E0,9.191773529E0
3.808496167E0,-7.906109161E0,-4.303251343E0,-2.099084930E0,9.242872483E0
3.818522167E0,-7.968978424E0,-4.067940674E0,-2.353855133E0,9.251669711E0
3.828548167E0,-8.004754028E0,-3.920347595E0,-2.415526886E0,9.234716155E0
3.838574167E0,-7.921227722E0,-3.922892303E0,-2.330204315E0,9.141377621E0
3.848600167E0,-7.698790283E0,-4.053570557E0,-2.327060852E0,9.006554185E0
3.858626167E0,-7.661068726E0,-4.330494690E0,-2.391277313E0,9.119395016E0
3.868652167E0,-7.716004486E0,-4.526437225E0,-2.454296265E0,9.276256214E0
3.878677167E0,-7.745642853E0,-4.556973724E0,-2.597099304E0,9.354459767E0
3.888703167E0,-8.137976990E0,-4.577630768E0,-2.697390747E0,9.718914022E0
3.898729167E0,-8.539142761E0,-4.388124847E0,-2.533930664E0,9.929421100E0
3.908755167E0,-8.891060944E0,-4.071383514E0,-2.005978546E0,9.982538673E0
3.918781167E0,-9.358688507E0,-3.642974396E0,-1.505419464E0,1.015492988E1
3.928807167E0,-9.901459808E0,-3.163970490E0,-1.050515442E0,1.044764080E1
3.938833167E0,-1.020428009E1,-2.771486664E0,-8.834628296E-1,1.061079531E1
3.948859167E0,-1.039797729E1,-2.867886200E0,-1.099014587E0,1.084207250E1
3.958885167E0,-1.036489609E1,-3.772006073E0,-1.641486511E0,1.115139358E1
3.968910167E0,-1.020532791E1,-5.068909149E0,-2.555635529E0,1.167792065E1
3.978936167E0,-1.005848328E1,-6.022575989E0,-3.753145294E0,1.230977689E1
3.988962167E0,-1.010234207E1,-6.766678619E0,-5.129832458E0,1.319698586E1
3.998988167E0,-1.010473709E1,-7.407795410E0,-5.932463379E0,1.386272939E1
4.009014167E0,-1.041818527E1,-7.928712158E0,-5.199737091E0,1.408688492E1
4.019040167E0,-1.150896698E1,-8.289461975E0,-3.304079132E0,1.456325649E1
4.029066167E0,-1.298729279E1,-8.063432007E0,-1.591191101E0,1.536946970E1
4.039092167E0,-1.333756439E1,-7.024442596E0,-5.391787720E-1,1.508390306E1
4.049118167E0,-1.289298889E1,-5.932762756E0,1.905537415E-1,1.419377142E1
4.059144167E0,-1.257130783E1,-5.269791412E0,7.291337585E-1,1.365064534E1
4.069169167E0,-1.205802521E1,-4.818928986E0,1.080153809E0,1.303014891E1
4.079195167E0,-1.104418350E1,-4.413122864E0,1.410965881E0,1.197666345E1
4.089221167E0,-9.103169861E0,-3.963757324E0,1.438059540E0,1.003230227E1
4.099247167E0,-7.174281006E0,-3.673061829E0,1.039139099E0,8.126592226E0
4.109273167E0,-5.956114197E0,-3.711831207E0,4.421804810E-1,7.031963511E0
4.119299167E0,-5.108576660E0,-4.117188263E0,-1.565744019E-1,6.563025996E0
4.129325167E0,-4.884792023E0,-5.094805298E0,-5.011578369E-1,7.075972958E0
4.139351167E0,-5.247637482E0,-6.213878174E0,-4.989125061E-1,8.148551699E0
4.149377167E0,-5.724096680E0,-7.284002838E0,-2.411485291E-1,9.267153433E0
4.159403167E0,-6.452631683E0,-8.197702789E0,3.839515686E-1,1.043964585E1
4.169428167E0,-7.483986969E0,-8.526568909E0,1.450034637E0,1.143744022E1
4.179454167E0,-8.353977814E0,-8.060288544E0,2.860701141E0,1.195578553E1
4.189480167E0,-8.592731323E0,-7.016060028E0,4.311633911E0,1.190169387E1
4.199506167E0,-8.177345123E0,-5.659131775E0,5.082680511E0,1.116818637E1
4.209532167E0,-8.054899750E0,-4.458029480E0,5.090314636E0,1.051982604E1
4.219558167E0,-8.026758270E0,-3.583997040E0,4.556225281E0,9.901165180E0
4.229584167E0,-7.919132080E0,-3.227887573E0,3.641776886E0,9.294861482E0
4.239610167E0,-7.804769897E0,-3.313509521E0,2.736908569E0,8.909795004E0
4.249636167E0,-7.486681366E0,-3.630101166E0,2.082020416E0,8.576878299E0
4.259661167E0,-7.054530029E0,-4.175417175E0,1.768272858E0,8.386136859E0
4.269687167E0,-6.913523254E0,-4.866080933E0,1.715582428E0,8.626631469E0
4.279713167E0,-6.935976563E0,-5.448370056E0,1.619482269E0,8.967453929E0
4.289739167E0,-6.997648315E0,-5.727240143E0,1.283730469E0,9.133253830E0
4.299765167E0,-7.116650848E0,-5.641917572E0,8.096662903E-1,9.117758096E0
4.309791167E0,-7.096442871E0,-5.338049469E0,3.817062378E-1,8.888192910E0
4.319817167E0,-6.909481659E0,-4.968318329E0,8.262817383E-2,8.510696283E0
4.329843167E0,-6.731651459E0,-4.696932678E0,-8.158035278E-2,8.208712646E0
4.339869167E0,-6.488407288E0,-4.530179443E0,-1.194515991E-1,7.914304998E0
4.349895167E0,-6.379134521E0,-4.461921387E0,-9.909393311E-2,7.785365715E0
4.359920167E0,-6.562353516E0,-4.514013062E0,-7.125183105E-2,7.965291860E0
4.369946167E0,-6.840026093E0,-4.652175751E0,-1.269360352E-1,8.273137792E0
4.379972167E0,-7.244035950E0,-4.743635559E0,-2.683918762E-1,8.663150083E0
4.389998167E0,-7.622598724E0,-4.827610931E0,-4.749623108E-1,9.035232582E0
4.400024167E0,-7.943531342E0,-4.874164124E0,-6.994953918E-1,9.345932799E0
4.410050125E0,-8.212222595E0,-4.769980774E0,-8.960366821E-1,9.539192747E0
4.420076125E0,-8.316256256E0,-4.571493530E0,-1.102008362E0,9.553695287E0
4.430102125E0,-8.221503296E0,-4.360133057E0,-1.300645294E0,9.396571444E0
4.440128125E0,-7.946974182E0,-4.203858032E0,-1.363514557E0,9.093183873E0
4.450153125E0,-7.696095886E0,-4.132007446E0,-1.289119263E0,8.829790819E0
4.460179125E0,-7.584877167E0,-4.133204956E0,-1.122964783E0,8.710613913E0
4.470205125E0,-7.536228333E0,-4.093238068E0,-1.018182678E0,8.636320474E0
4.480231125E0,-7.546257477E0,-4.059558105E0,-1.018032990E0,8.629160161E0
4.490257125E0,-7.549400940E0,-4.008963318E0,-1.177002411E0,8.628474727E0
4.500283125E0,-7.632178802E0,-3.950285339E0,-1.484912109E0,8.721231078E0
4.510309125E0,-7.766000519E0,-3.913162537E0,-2.145488434E0,8.956937296E0
4.520335125E0,-7.888894958E0,-3.941753082E0,-3.158282318E0,9.367327699E0
4.530361125E0,-7.970774689E0,-4.158352661E0,-3.818559265E0,9.767627186E0
4.540387125E0,-8.108188934E0,-4.511917419E0,-3.728596344E0,1.000012786E1
4.550412125E0,-8.292455750E0,-4.833598480E0,-3.020419006E0,1.006237684E1
4.560438125E0,-8.528065796E0,-5.122647400E0,-2.320025482E0,1.021527977E1
4.570464125E0,-8.741222534E0,-5.391787720E0,-2.158211975E0,1.049467604E1
4.580490125E0,-8.955576782E0,-5.597460022E0,-2.448458405E0,1.084107295E1
4.590516125E0,-9.177265778E0,-5.615722046E0,-2.758613434E0,1.110713686E1
4.600542125E0,-9.201066284E0,-5.571114807E0,-2.861748962E0,1.113043342E1
4.610568125E0,-9.078321533E0,-5.579647064E0,-2.932102661E0,1.105195047E1
4.620594125E0,-8.994645538E0,-5.637277222E0,-3.064577179E0,1.104871830E1
4.630620125E0,-9.133107605E0,-5.719306641E0,-3.345842285E0,1.128356254E1
4.640646125E0,-9.581425323E0,-5.789211273E0,-3.476819916E0,1.172207128E1
4.650671125E0,-9.882299652E0,-5.679639130E0,-3.772455139E0,1.200623025E1
4.660697125E0,-9.966873779E0,-5.281167755E0,-3.892056427E0,1.193220051E1
4.670723125E0,-9.819879456E0,-4.785548401E0,-3.676654358E0,1.152602678E1
4.680749125E0,-9.424252167E0,-4.621938629E0,-3.367547150E0,1.102357562E1
4.690775125E0,-9.168434143E0,-4.927153931E0,-2.934497681E0,1.081426406E1
4.700801125E0,-9.116342468E0,-5.639073486E0,-2.585273895E0,1.102680783E1
4.710827125E0,-9.180259552E0,-6.456373901E0,-2.539319458E0,1.150695758E1
4.720853125E0,-9.348210297E0,-7.261250153E0,-2.398462372E0,1.207755817E1
4.730879125E0,-9.293424225E0,-8.146359558E0,-2.213147736E0,1.255503607E1
4.740905125E0,-8.926986237E0,-8.880433044E0,-1.706451416E0,1.270689383E1
4.750930125E0,-8.392148438E0,-9.522897034E0,-9.391470337E-1,1.272775394E1
4.760956125E0,-8.077951813E0,-9.774074707E0,-3.032693481E-1,1.268376183E1
4.770982125E0,-8.545729065E0,-8.728199615E0,8.711883545E-2,1.221550422E1
4.781008125E0,-8.625513153E0,-7.032376099E0,2.853067017E-1,1.113261832E1
4.791034125E0,-8.294551392E0,-5.308560791E0,3.662882996E-1,9.854672373E0
4.801060125E0,-7.917186127E0,-3.701502686E0,8.901988220E-1,8.784953741E0
4.811086125E0,-7.609426117E0,-2.452050934E0,1.997745667E0,8.240564748E0
4.821112125E0,-7.754474487E0,-1.387165375E0,3.304528198E0,8.542599661E0
4.831138125E0,-7.968379669E0,-4.252656555E-1,4.621938629E0,9.221618194E0
4.841163125E0,-8.136031036E0,4.361929321E-1,5.838458862E0,1.002361547E1
4.851189125E0,-8.080945587E0,9.394464111E-1,6.700366516E0,1.053940950E1
4.861215125E0,-7.602989502E0,6.093827820E-1,7.052434387E0,1.038814842E1
4.871241125E0,-7.100634155E0,-1.142424316E0,6.694828033E0,9.825724458E0
4.881267125E0,-7.391778717E0,-3.516188049E0,5.731730804E0,9.992732810E0
4.891293125E0,-7.670050049E0,-5.337600403E0,4.587809601E0,1.040997804E1
4.901319125E0,-7.871531067E0,-6.603068848E0,3.326233063E0,1.079932155E1
4.911345125E0,-8.096962280E0,-7.451055450E0,2.042652283E0,1.119157960E1
4.921371125E0,-8.629704437E0,-7.981701965E0,6.457571411E-1,1.177269583E1
4.931397125E0,-9.340576172E0,-8.017028503E0,-6.242019653E-1,1.232512626E1
4.941422125E0,-9.432335358E0,-7.339387665E0,-1.454674988E0,1.203958641E1
4.951448125E0,-9.325008545E0,-6.316414948E0,-1.608704681E0,1.137720585E1
4.961474125E0,-9.292675781E0,-5.115312653E0,-1.037791901E0,1.065820148E1
4.971500125E0,-9.075627136E0,-3.934268646E0,-2.712359619E-1,9.895405330E0
4.981526125E0,-8.625662842E0,-2.808908844E0,2.567161560E-1,9.075127081E0
4.991552125E0,-8.124505005E0,-1.964664459E0,5.734574890E-1,8.378325698E0
5.001578125E0,-7.784711609E0,-1.612297211E0,6.545887756E-1,7.976824155E0
5.011604125E0,-7.743696899E0,-1.830992432E0,3.433859253E-1,7.964627352E0
5.021630125E0,-7.904911652E0,-2.291434937E0,-2.222877502E-1,8.233329468E0
5.031656125E0,-7.923772430E0,-2.716550903E0,-7.517367554E-1,8.410168042E0
5.041681125E0,-7.976911926E0,-3.091072083E0,-1.144669647E0,8.631113433E0
5.051707125E0,-7.945477295E0,-3.398383026E0,-1.430126038E0,8.759273778E0
5.061733125E0,-7.896678772E0,-3.645070038E0,-1.729653168E0,8.867681280E0
5.071759125E0,-7.896978149E0,-3.779490509E0,-2.071242828E0,8.996491497E0
5.081785125E0,-7.783663788E0,-3.907624054E0,-2.350861359E0,9.021169372E0
5.091811125E0,-7.676636353E0,-4.066443787E0,-2.310894470E0,8.989268269E0
5.101837125E0,-7.760162659E0,-4.225562897E0,-1.928439789E0,9.044024895E0
5.111863125E0,-7.921527100E0,-4.332590332E0,-1.525627441E0,9.156935605E0
5.121889125E0,-8.028255157E0,-4.346062317E0,-1.450783081E0,9.243695694E0
5.131915125E0,-7.983348541E0,-4.266128540E0,-1.748513947E0,9.219056767E0
5.141940125E0,-7.889493713E0,-4.047583008E0,-2.217339020E0,9.140220544E0
5.151966125E0,-7.764204254E0,-3.751349030E0,-2.550695801E0,8.992304283E0
5.161992125E0,-7.645950165E0,-3.539240112E0,-2.557132416E0,8.804868011E0
5.172018125E0,-7.677384796E0,-3.590882721E0,-2.381248169E0,8.803807067E0
5.182044125E0,-7.830516357E0,-3.873495026E0,-2.139051819E0,8.994247763E0
5.192070125E0,-8.060288544E0,-4.173770599E0,-2.020947418E0,9.299077421E0
5.202096125E0,-8.335715790E0,-4.390370178E0,-2.111509094E0,9.654945815E0
5.212122125E0,-8.730444946E0,-4.514162750E0,-2.330354004E0,1.010093481E1
5.222148125E0,-9.374705200E0,-4.483177185E0,-2.334545288E0,1.065054351E1
5.232174125E0,-9.737999725E0,-4.104165344E0,-1.973196716E0,1.075017754E1
5.242199125E0,-9.632768555E0,-3.431464233E0,-1.286424866E0,1.030631194E1
5.252225125E0,-9.472601624E0,-3.075803833E0,-7.399113464E-1,9.986902400E0
5.262251125E0,-9.476792908E0,-3.196902008E0,-7.888595581E-1,1.003255130E1
5.272277125E0,-9.820328522E0,-3.520529022E0,-1.402733002E0,1.052618814E1
5.282303125E0,-1.021386017E1,-3.884422302E0,-2.193837891E0,1.114560904E1
5.292329125E0,-1.028810577E1,-4.391717377E0,-2.848276978E0,1.154317910E1
5.302355125E0,-1.001193008E1,-4.998106384E0,-3.419339447E0,1.170092704E1
5.312381125E0,-9.716743927E0,-5.649851074E0,-4.084107056E0,1.195892387E1
5.322407125E0,-9.600735168E0,-6.366410980E0,-4.615651703E0,1.241005823E1
5.332433125E0,-9.567204895E0,-7.098239136E0,-4.561763763E0,1.275641395E1
5.342458125E0,-1.002839584E1,-7.736362152E0,-3.625460815E0,1.317436862E1
5.352484125E0,-1.087787933E1,-7.940836945E0,-2.366728363E0,1.367430266E1
5.362510125E0,-1.164638123E1,-7.423363037E0,-1.538350983E0,1.389643977E1
5.372536125E0,-1.196581696E1,-6.295608215E0,-1.020877075E0,1.355941179E1
5.382562125E0,-1.245694565E1,-5.292693787E0,-4.227209473E-1,1.354129962E1
5.392588125E0,-1.306707687E1,-4.843028870E0,2.859054565E-1,1.393862147E1
5.402614125E0,-1.303474411E1,-4.568050690E0,9.488768005E-1,1.384456602E1
5.412640125E0,-1.212448700E1,-4.416715393E0,1.375040588E0,1.297695251E1
5.422666125E0,-1.030038025E1,-4.468058624E0,1.553319855E0,1.133464528E1
5.432692125E0,-8.293054504E0,-4.563709717E0,1.255738678E0,9.548773692E0
5.442718125E0,-6.968608704E0,-4.862488403E0,7.186555481E-1,8.527705819E0
5.452743125E0,-6.126010895E0,-5.243146820E0,1.395098877E-1,8.064617850E0
5.462769125E0,-5.382207642E0,-5.774092712E0,-2.302212524E-1,7.896917600E0
5.472795125E0,-5.017565918E0,-6.529571686E0,-2.583627319E-1,8.238812138E0
5.482821125E0,-5.009782104E0,-7.385940857E0,1.347198486E-2,8.924697226E0
5.492847125E0,-5.215155029E0,-8.219108276E0,5.454656982E-1,9.749313600E0
5.502873125E0,-5.776038666E0,-8.873247986E0,1.542242889E0,1.069933015E1
5.512899125E0,-7.072941742E0,-8.847651215E0,3.143014069E0,1.175525305E1
5.522925125E0,-8.414901123E0,-7.922574921E0,4.525988159E0,1.241218446E1
5.532951125E0,-8.416398010E0,-6.356531525E0,4.887336731E0,1.162442725E1
5.542977125E0,-7.933053131E0,-4.697082367E0,4.528682556E0,1.027155687E1
5.553002125E0,-7.853718109E0,-3.442690887E0,4.194277954E0,9.545940302E0
5.563028125E0,-7.909701691E0,-2.599494324E0,3.940256195E0,9.211208957E0
5.573054125E0,-7.838749237E0,-2.123334503E0,3.522025909E0,8.852073515E0
5.583080125E0,-7.723189545E0,-2.071093140E0,2.882256317E0,8.499675583E0
5.593106125E0,-7.664810944E0,-2.578687592E0,2.091750183E0,8.353105729E0
5.603132125E0,-7.700436859E0,-3.363655243E0,1.465452576E0,8.529856720E0
5.613158125E0,-7.596403198E0,-4.100572815E0,1.029259644E0,8.693642181E0
5.623184125E0,-7.420968018E0,-4.757406921E0,5.016069031E-1,8.829229662E0
5.633210125E0,-7.490722961E0,-5.181026001E0,4.939727783E-3,9.107907845E0
5.643236125E0,-7.594606934E0,-5.353317719E0,-3.137475586E-1,9.297015790E0
5.653261125E0,-7.455546112E0,-5.338049469E0,-4.138893127E-1,9.178847658E0
5.663287125E0,-7.202721863E0,-5.252128143E0,-5.671705627E-1,8.932286086E0
5.673313125E0,-6.956034851E0,-5.176834717E0,-7.464976501E-1,8.703062523E0
5.683339125E0,-6.618037720E0,-5.212310944E0,-9.125024414E-1,8.473444951E0
5.693365125E0,-6.573729858E0,-5.198838959E0,-1.068029022E0,8.448818661E0
5.703391125E0,-6.729106750E0,-5.065466309E0,-1.395547943E0,8.537410652E0
5.713417125E0,-6.871011658E0,-4.803211670E0,-1.855391693E0,8.586275204E0
5.723443125E0,-7.022346954E0,-4.524940338E0,-2.246678009E0,8.650780536E0
5.733469125E0,-7.151378632E0,-4.232298889E0,-2.526296539E0,8.685432886E0
5.743495125E0,-7.152725830E0,-4.063000946E0,-2.819536743E0,8.695933011E0
5.753520125E0,-7.171586609E0,-3.991300049E0,-2.982398071E0,8.732515607E0
5.763546125E0,-7.175029449E0,-4.213138733E0,-2.744093628E0,8.761371777E0
5.773572125E0,-7.259753265E0,-4.574038239E0,-2.364932098E0,8.900491397E0
5.783598125E0,-7.289990387E0,-4.786147156E0,-2.139201508E0,8.979273218E0
5.793624125E0,-7.188651123E0,-4.817282410E0,-2.105521545E0,8.905960687E0
5.803650125E0,-7.091652832E0,-4.648882599E0,-2.130220184E0,8.743082256E0
5.813676125E0,-7.106172638E0,-4.417912903E0,-2.042951660E0,8.613320815E0
5.823702125E0,-7.265591125E0,-4.263284454E0,-1.919757843E0,8.640016141E0
5.833728125E0,-7.625143433E0,-4.180955658E0,-1.864672394E0,8.893829643E0
5.843754125E0,-7.994425507E0,-4.114493866E0,-1.976938934E0,9.205877824E0
5.853779125E0,-8.357270966E0,-3.963607635E0,-2.158361664E0,9.498036037E0
5.863805125E0,-8.693172455E0,-3.752546539E0,-2.361938324E0,9.758668224E0
5.873831125E0,-8.873697052E0,-3.643722839E0,-2.493814087E0,9.911524817E0
5.883857125E0,-8.969497833E0,-3.870351563E0,-2.459086304E0,1.007365962E1
5.893883125E0,-9.119785309E0,-4.528233490E0,-2.289339294E0,1.043630476E1
5.903909125E0,-9.185348969E0,-5.303621063E0,-2.161954193E0,1.082465140E1
5.913935125E0,-8.894204407E0,-5.943091278E0,-2.073039093E0,1.089608632E1
5.923961125E0,-8.454568634E0,-6.489305420E0,-2.113155670E0,1.086536895E1
5.933987125E0,-8.399183807E0,-6.965914307E0,-2.355801086E0,1.116333505E1
5.944013125E0,-8.740623779E0,-7.326813812E0,-3.006048889E0,1.179478845E1
5.954039125E0,-9.550589447E0,-7.013964386E0,-3.742367706E0,1.242637402E1
5.964064125E0,-1.027493317E1,-6.002667389E0,-4.325405273E0,1.266157171E1
5.974090125E0,-1.066098038E1,-4.768184509E0,-4.953199768E0,1.268567200E1
5.984116125E0,-1.106214615E1,-3.898642731E0,-5.067561951E0,1.277695882E1
5.994142125E0,-1.185010757E1,-3.649261322E0,-4.063000946E0,1.304799350E1
6.004168125E0,-1.241548187E1,-4.361480255E0,-1.976190491E0,1.330684144E1
6.014194125E0,-1.226848755E1,-5.699398041E0,-3.167413330E-1,1.353141714E1
6.024220125E0,-1.172631500E1,-7.253765717E0,-2.483335876E-1,1.379076685E1
6.034246125E0,-1.122096588E1,-8.596323853E0,-8.247848511E-1,1.415934777E1
6.044272125E0,-1.081710571E1,-9.587263184E0,-9.463320923E-1,1.448519713E1
6.054298125E0,-1.071486832E1,-9.456584930E0,-6.908134460E-1,1.430778197E1
6.064324125E0,-1.041010208E1,-7.554789734E0,-1.176553345E-1,1.286308346E1
6.074349125E0,-9.379345551E0,-5.393434296E0,7.283853149E-1,1.084397536E1
6.084375125E0,-8.607550507E0,-3.533252563E0,1.748813324E0,9.467425597E0
6.094401125E0,-7.854167175E0,-1.972448273E0,2.848875732E0,8.584555151E0
6.104427125E0,-7.022945709E0,-8.381071472E-1,3.866759033E0,8.060770152E0
6.114453125E0,-6.427933044E0,-6.735992432E-2,4.729564819E0,7.980704478E0
6.124479125E0,-6.135740662E0,3.302133179E-1,5.430706787E0,8.200544525E0
6.134505125E0,-6.004912720E0,3.008743286E-1,5.971382446E0,8.473895825E0
6.144531125E0,-5.768853607E0,-1.695973206E-1,6.231691132E0,8.493668792E0
6.154557125E0,-5.424120483E0,-1.422042847E0,5.884263611E0,8.128213034E0
6.164583125E0,-5.240901489E0,-3.195255432E0,4.983736267E0,7.906600589E0
6.174608125E0,-5.007836151E0,-4.445904694E0,4.339625702E0,7.979777108E0
6.184634125E0,-5.053640900E0,-5.428461456E0,3.945644989E0,8.400928193E0
6.194660125E0,-5.720653839E0,-6.134692841E0,3.747307434E0,9.187091466E0
6.204686125E0,-7.115603027E0,-6.471492462E0,3.516637115E0,1.024103304E1
6.214712125E0,-8.629854126E0,-6.509812775E0,3.023263092E0,1.122462313E1
6.224738125E0,-9.590706024E0,-6.173761597E0,2.262994080E0,1.162833249E1
6.234764125E0,-1.021894958E1,-5.611381073E0,1.413061523E0,1.174356296E1
6.244790125E0,-1.088536377E1,-4.990472260E0,6.348298645E-1,1.199162069E1
6.254816125E0,-1.120390137E1,-4.154311066E0,9.160949707E-2,1.194964847E1
6.264842125E0,-1.104268661E1,-3.226690063E0,-2.228865051E-1,1.150661266E1
6.274867125E0,-1.043554916E1,-2.424208832E0,-3.833528137E-1,1.072028144E1
6.284893125E0,-9.704619141E0,-1.914518738E0,-3.567082214E-1,9.898093524E0
6.294919125E0,-9.156908112E0,-1.950593719E0,-6.441105652E-1,9.384490420E0
6.304945125E0,-8.707841949E0,-2.247127075E0,-1.239123230E0,9.078078976E0
6.314971125E0,-8.229586487E0,-2.619851990E0,-1.407972107E0,8.750548763E0
6.324997125E0,-7.862849121E0,-2.991978149E0,-1.689237213E0,8.580783875E0
6.335023125E0,-7.624844055E0,-3.370091858E0,-2.217189331E0,8.626221335E0
6.345049125E0,-7.496560822E0,-3.705693970E0,-3.031795349E0,8.895075884E0
6.355075125E0,-7.474406891E0,-3.840413818E0,-3.300636292E0,9.028274287E0
6.365101125E0,-7.591762848E0,-3.766018524E0,-2.486030273E0,8.831653593E0
6.375127125E0,-7.830815735E0,-3.568130035E0,-1.357227631E0,8.711790509E0
6.385152125E0,-8.066575470E0,-3.325634308E0,-6.692582703E-1,8.750850815E0
6.395178125E0,-8.210725708E0,-3.159629517E0,-6.207591248E-1,8.819558789E0
6.405204417E0,-8.259224854E0,-3.026855621E0,-9.633966064E-1,8.848998992E0
6.415230417E0,-8.199199677E0,-2.885250092E0,-1.384321289E0,8.801584452E0
6.425256417E0,-8.142617340E0,-2.785557404E0,-1.631607056E0,8.759205945E0
6.435282417E0,-8.103099518E0,-2.753524017E0,-1.743424530E0,8.733936421E0
6.445308417E0,-8.110134888E0,-2.746338959E0,-1.755249939E0,8.740570229E0
6.455334417E0,-8.139922943E0,-2.795436859E0,-1.776206360E0,8.787930461E0
6.465360417E0,-8.140521698E0,-2.964884491E0,-1.867516479E0,8.862632304E0
6.475386417E0,-8.149353333E0,-3.163371735E0,-1.972448273E0,8.961553027E0
6.485412417E0,-8.236322479E0,-3.426075439E0,-2.052531738E0,9.153572387E0
6.495437417E0,-8.402177582E0,-3.748504944E0,-2.107467499E0,9.438712661E0
6.505463417E0,-8.578211517E0,-4.043242035E0,-2.096091156E0,9.712214841E0
6.515489417E0,-8.790769501E0,-4.303850098E0,-1.995350647E0,9.989102977E0
6.525515417E0,-9.033265228E0,-4.465962982E0,-1.770817566E0,1.023134893E1
6.535541417E0,-9.210047607E0,-4.482428741E0,-1.461410980E0,1.034663551E1
6.545567417E0,-9.388326874E0,-4.365222473E0,-1.205143890E0,1.042344571E1
6.555593417E0,-9.655221863E0,-4.160298615E0,-1.161734161E0,1.057738248E1
6.565619417E0,-9.885892181E0,-3.892954559E0,-1.348246307E0,1.070998261E1
6.575645417E0,-9.935588837E0,-3.719465332E0,-1.664388885E0,1.073874007E1
6.585671417E0,-9.916428680E0,-3.864364014E0,-2.063908081E0,1.084106008E1
6.595696417E0,-9.860744476E0,-4.291425934E0,-2.593207397E0,1.106233894E1
6.605722417E0,-9.713600464E0,-4.735552368E0,-3.399879913E0,1.132866601E1
6.615748417E0,-9.811347198E0,-5.164410553E0,-4.602778473E0,1.200496730E1
6.625774417E0,-1.009500732E1,-5.464686127E0,-5.670657806E0,1.280344982E1
6.635800417E0,-1.046907944E1,-5.517825623E0,-5.720953217E0,1.314447905E1
6.645826417E0,-1.115525253E1,-5.341192932E0,-4.184997253E0,1.305688336E1
6.655852417E0,-1.226205093E1,-5.075345764E0,-2.029629364E0,1.342521594E1
6.665878417E0,-1.320643707E1,-4.543052673E0,-1.535806274E-1,1.396684985E1
6.675904417E0,-1.343830490E1,-3.928730164E0,1.155447235E0,1.404841691E1
6.685930417E0,-1.336435867E1,-3.907624054E0,1.839973755E0,1.404496749E1
6.695956417E0,-1.361448853E1,-4.348307648E0,2.019300842E0,1.443397565E1
6.705981417E0,-1.303279816E1,-4.681814117E0,1.984273682E0,1.398965880E1
6.716007417E0,-1.105047043E1,-4.817282410E0,1.571132813E0,1.215679089E1
6.726033417E0,-8.735085297E0,-5.058281250E0,8.063731384E-1,1.012611288E1
6.736059417E0,-7.059320068E0,-5.514831848E0,1.315763855E-1,8.959055893E0
6.746085417E0,-6.337221680E0,-6.006110229E0,-2.835104370E-1,8.735795148E0
6.756111417E0,-6.014642487E0,-6.487509155E0,-6.619235229E-1,8.871405866E0
6.766137417E0,-5.835764465E0,-7.058571625E0,-8.137078857E-1,9.194656100E0
6.776163417E0,-5.971532135E0,-7.786507874E0,-7.291337585E-1,9.839742727E0
6.786189417E0,-6.602470093E0,-8.480165405E0,-2.987786865E-1,1.075151549E1
6.796215417E0,-7.741900635E0,-8.800648956E0,8.884025574E-1,1.175490139E1
6.806241417E0,-8.831185455E0,-8.484506378E0,2.755320282E0,1.255262821E1
6.816266417E0,-9.163494415E0,-7.384294281E0,4.649481354E0,1.265365990E1
6.826292417E0,-9.106762390E0,-5.769452362E0,5.535788269E0,1.211877277E1
6.836318417E0,-9.034612427E0,-4.162543945E0,5.440735931E0,1.133810395E1
6.846344417E0,-8.987011414E0,-2.841091919E0,5.060376892E0,1.069792465E1
6.856370417E0,-8.760233002E0,-1.816023560E0,4.490362244E0,1.001014370E1
6.866396417E0,-8.343499603E0,-1.060843964E0,3.725003815E0,9.198642778E0
6.876422417E0,-7.910150757E0,-7.526348877E-1,2.778522034E0,8.417667668E0
6.886448417E0,-7.280410309E0,-8.135581970E-1,1.782493286E0,7.539465069E0
6.896474417E0,-6.887028351E0,-1.255439301E0,1.000519409E0,7.071656555E0
6.906500417E0,-6.970404968E0,-2.087259521E0,6.162684631E-1,7.302258866E0
6.916525417E0,-7.195237427E0,-3.018323364E0,5.542973328E-1,7.822337444E0
6.926551417E0,-7.142397308E0,-3.839216309E0,5.114863586E-1,8.124963967E0
6.936577417E0,-6.916067963E0,-4.596491547E0,4.590953064E-1,8.316880371E0
6.946603417E0,-6.784641266E0,-5.304818573E0,2.163002014E-1,8.615059081E0
6.956629417E0,-6.638245697E0,-5.909860382E0,-2.080673218E-1,8.890222026E0
6.966655417E0,-6.386618958E0,-6.337071991E0,-7.539820862E-1,9.028614075E0
6.976681417E0,-6.042933655E0,-6.550228729E0,-1.394500122E0,9.020375500E0
6.986707417E0,-5.828878784E0,-6.688541107E0,-2.061063995E0,9.108259703E0
6.996733417E0,-5.871240692E0,-6.716981964E0,-2.611319733E0,9.295606743E0
7.006759417E0,-6.187532959E0,-6.661896515E0,-2.986140289E0,9.569924928E0
7.016785417E0,-6.582711182E0,-6.437812500E0,-3.005001068E0,9.685429660E0
7.026810417E0,-6.798113251E0,-5.881120148E0,-2.631378021E0,9.366219528E0
7.036836417E0,-6.998995514E0,-5.174589386E0,-2.081721039E0,8.949629937E0
7.046862417E0,-7.307953033E0,-4.586911469E0,-1.631157990E0,8.781036997E0
7.056888417E0,-7.606132965E0,-4.078867950E0,-1.240171051E0,8.719429263E0
7.066914417E0,-7.782316589E0,-3.663631439E0,-1.038839722E0,8.664054177E0
7.076940417E0,-7.936645660E0,-3.268752594E0,-1.049766998E0,8.647375244E0
7.086966417E0,-8.101003876E0,-2.985541534E0,-1.218166809E0,8.719154341E0
7.096992417E0,-8.201445007E0,-2.894381104E0,-1.599423981E0,8.843036766E0
7.107018417E0,-8.262667694E0,-3.063379669E0,-2.031126251E0,9.043309475E0
7.117044417E0,-8.186027069E0,-3.448379059E0,-2.409090271E0,9.203590237E0
7.127070417E0,-8.097710724E0,-3.847598877E0,-2.740201721E0,9.374734213E0
7.137095417E0,-8.091423798E0,-4.227059784E0,-3.156036987E0,9.659179207E0
7.147121417E0,-8.105195160E0,-4.556075592E0,-3.620521088E0,9.977985084E0
7.157147417E0,-8.168064423E0,-4.837041321E0,-3.873045959E0,1.025254750E1
7.167173417E0,-8.212971039E0,-4.952151947E0,-3.762725372E0,1.030217474E1
7.177199417E0,-8.271050262E0,-4.985233154E0,-3.431314545E0,1.024874341E1
7.187225417E0,-8.239316254E0,-4.923561401E0,-2.893033905E0,1.002484087E1
7.197251417E0,-8.304879913E0,-4.863386536E0,-2.309996338E0,9.897456342E0
7.207277417E0,-8.510552216E0,-4.813839569E0,-2.040257263E0,9.988253106E0
7.217303417E0,-8.728648682E0,-4.705764313E0,-2.032473450E0,1.012247370E1
7.227329417E0,-8.910520477E0,-4.671485596E0,-2.184706879E0,1.029529490E1
7.237355417E0,-9.025481415E0,-4.898713074E0,-2.362387390E0,1.053743701E1
7.247380417E0,-9.150770874E0,-5.330565033E0,-2.629581757E0,1.091174740E1
7.257406417E0,-9.207502899E0,-5.680686951E0,-3.149600372E0,1.126802096E1
7.267432417E0,-9.369166718E0,-5.681585083E0,-3.933071136E0,1.164176716E1
7.277458417E0,-9.963281250E0,-5.110522614E0,-5.044210510E0,1.228122446E1
7.287484417E0,-1.073507629E1,-4.050277405E0,-6.380930786E0,1.312870473E1
7.297510417E0,-1.130239655E1,-3.095263367E0,-7.164551239E0,1.373519630E1
7.307536417E0,-1.159249329E1,-2.658172302E0,-6.416257324E0,1.351370188E1
7.317562417E0,-1.160237274E1,-2.908002777E0,-4.533921661E0,1.279171525E1
7.327588417E0,-1.150058441E1,-3.888314209E0,-2.555934906E0,1.240625779E1
7.337614417E0,-1.098191299E1,-5.191204834E0,-1.236877899E0,1.220986845E1
7.347640417E0,-1.041324554E1,-6.582561493E0,-6.496490479E-1,1.233644367E1
7.357665417E0,-9.808652802E0,-8.050109711E0,-3.773652649E-1,1.269473673E1
7.367691417E0,-9.158404999E0,-9.517508240E0,3.143463135E-1,1.321204597E1
7.377717417E0,-8.613238678E0,-1.045545776E1,1.210083618E0,1.360032279E1
7.387743417E0,-8.303832092E0,-1.001507355E1,1.695823517E0,1.311987588E1
7.397769417E0,-8.207432556E0,-8.230933685E0,1.564247131E0,1.172847337E1
7.407794917E0,-7.499554596E0,-6.143674164E0,1.142873383E0,9.761875380E0
7.417820917E0,-7.079378357E0,-4.321812744E0,1.017883301E0,8.356539339E0
7.427846917E0,-7.152725830E0,-3.154540100E0,1.236129456E0,7.914583127E0
7.437872917E0,-7.469467163E0,-2.320923615E0,1.888323212E0,8.046452055E0
7.447898917E0,-8.038883057E0,-1.726210327E0,3.022664337E0,8.760133708E0
7.457924917E0,-8.669222260E0,-1.308129730E0,4.473597107E0,9.842748044E0
7.467949917E0,-8.950337677E0,-1.118923187E0,5.903723145E0,1.078028203E1
7.477975917E0,-8.887169037E0,-1.367705841E0,6.706803131E0,1.121755771E1
7.488001917E0,-8.547824707E0,-2.341281281E0,6.143075409E0,1.078351894E1
7.498027917E0,-8.368048553E0,-3.807033234E0,4.724924469E0,1.033647183E1
7.508053917E0,-8.120463409E0,-4.996609497E0,3.322341156E0,1.009683035E1
7.518079917E0,-7.563771057E0,-5.762267303E0,2.065704346E0,9.730441487E0
7.528105917E0,-7.127129059E0,-6.173312531E0,1.114282837E0,9.494597541E0
7.538131917E0,-6.944658508E0,-6.352340240E0,4.526586914E-1,9.422600926E0
7.548157917E0,-7.081024933E0,-6.316265259E0,-1.359173584E-1,9.489709924E0
7.558183917E0,-7.572003937E0,-6.012995911E0,-6.399192810E-1,9.690245617E0
7.568209917E0,-8.181087341E0,-5.304369507E0,-1.087039490E0,9.810615720E0
7.578234917E0,-8.556057587E0,-4.446503448E0,-1.279090118E0,9.726951520E0
7.588260917E0,-8.776249695E0,-3.532055054E0,-1.270108795E0,9.545215972E0
7.598286917E0,-8.981622620E0,-2.564317474E0,-1.079854431E0,9.402731230E0
7.608312917E0,-8.994645538E0,-1.739682312E0,-1.027762756E0,9.218808990E0
7.618338917E0,-9.009165344E0,-1.086889801E0,-1.089135132E0,9.139617332E0
7.628364917E0,-8.990005188E0,-7.604187012E-1,-1.258732452E0,9.109491603E0
7.638390917E0,-8.751401367E0,-8.601113892E-1,-1.503024445E0,8.921092981E0
7.648416917E0,-8.156239014E0,-1.266665955E0,-1.852697296E0,8.459383238E0
7.658442917E0,-7.612419891E0,-1.877395935E0,-2.374362488E0,8.192139484E0
7.668468917E0,-7.348818054E0,-2.643053741E0,-3.026556244E0,8.375613564E0
7.678494917E0,-7.220235443E0,-3.326382751E0,-3.299887848E0,8.607315602E0
7.688519917E0,-7.219037933E0,-3.887416077E0,-3.028951263E0,8.740769886E0
7.698545917E0,-7.301815796E0,-4.273313599E0,-2.448308716E0,8.807493321E0
7.708571917E0,-7.409142609E0,-4.551435242E0,-1.955234070E0,8.912569619E0
7.718597917E0,-7.539671173E0,-4.736749878E0,-1.885479126E0,9.101564280E0
7.728623917E0,-7.496560822E0,-4.547693024E0,-2.237696686E0,9.049155897E0
7.738649917E0,-7.407196655E0,-4.103416901E0,-2.650388489E0,8.872944928E0
7.748675917E0,-7.464677124E0,-3.698359222E0,-2.872676239E0,8.812010797E0
7.758701917E0,-7.573201447E0,-3.447331238E0,-2.865940247E0,8.800629881E0
7.768727917E0,-7.629933472E0,-3.360811157E0,-2.744542694E0,8.777439890E0
7.778753917E0,-7.674241333E0,-3.420237579E0,-2.645897827E0,8.808676430E0
7.788779917E0,-7.767796783E0,-3.581003265E0,-2.607577515E0,8.942131276E0
7.798804917E0,-7.782765656E0,-3.789070587E0,-2.681074677E0,9.061824242E0
7.808830917E0,-7.926017761E0,-4.052971802E0,-2.840193787E0,9.344251641E0
7.818856917E0,-8.302634583E0,-4.366869049E0,-2.855012970E0,9.805834251E0
7.828882917E0,-8.796158295E0,-4.550836487E0,-2.456092529E0,1.020367110E1
7.838908917E0,-9.173523560E0,-4.545298004E0,-1.815574493E0,1.039757564E1
7.848934917E0,-9.212143250E0,-4.608616333E0,-1.282832336E0,1.038020166E1
7.858960917E0,-9.078022156E0,-4.872667236E0,-1.108295288E0,1.036251373E1
7.868986917E0,-9.193282471E0,-5.081632690E0,-1.442250824E0,1.060280721E1
7.879012917E0,-1.010324020E1,-4.929698639E0,-2.289339294E0,1.147250913E1
7.889038917E0,-1.066172882E1,-4.154311066E0,-3.203338623E0,1.188242990E1
7.899064917E0,-1.036055511E1,-3.395389252E0,-3.997437286E0,1.161246207E1
7.909089917E0,-1.008123596E1,-3.395089874E0,-4.669539642E0,1.161733852E1
7.919115917E0,-1.026116180E1,-3.964655457E0,-4.793930969E0,1.199965452E1
7.929141917E0,-1.053090088E1,-4.754862213E0,-4.590204620E0,1.243296290E1
7.939167917E0,-1.091440338E1,-5.385949860E0,-3.744163971E0,1.273386905E1
7.949193917E0,-1.181882263E1,-5.966442719E0,-2.120041351E0,1.340811629E1
7.959219917E0,-1.286754181E1,-6.329886932E0,-4.297563171E-1,1.434662996E1
7.969245917E0,-1.363574432E1,-6.382577362E0,6.038442993E-1,1.506769541E1
7.979271917E0,-1.336645432E1,-6.040538635E0,1.135688324E0,1.471189981E1
7.989297917E0,-1.243329483E1,-5.631439362E0,1.352736969E0,1.371604268E1
7.999323917E0,-1.120090759E1,-5.401367798E0,1.094972992E0,1.248335175E1
8.009349917E0,-9.561217346E0,-5.355563049E0,4.038601685E-1,1.096640487E1
8.019375917E0,-8.453221436E0,-5.664221191E0,-2.639012146E-1,1.017889966E1
8.029400917E0,-7.779622192E0,-6.212081909E0,-6.631210327E-1,9.977585510E0
8.039426917E0,-7.090904388E0,-6.895560608E0,-7.869136047E-1,9.922142620E0
8.049452917E0,-6.551126862E0,-7.568411407E0,-8.644523621E-1,1.004715842E1
8.059478917E0,-6.240073700E0,-8.021519165E0,-9.458830261E-1,1.020676169E1
8.069504917E0,-5.765859833E0,-8.449479218E0,-8.012837219E-1,1.026064785E1
8.079530917E0,-5.768254852E0,-8.654702454E0,-4.306544495E-1,1.040971190E1
8.089556917E0,-6.350993042E0,-8.385861511E0,3.839515686E-1,1.052640512E1
8.099582917E0,-7.326514435E0,-7.466174011E0,1.532812500E0,1.057218437E1
8.109608917E0,-7.692802734E0,-6.106251984E0,2.717149658E0,1.019060496E1
8.119634917E0,-7.571255493E0,-4.448150024E0,3.686234436E0,9.523564075E0
8.129660917E0,-7.471562805E0,-2.827320557E0,4.055366821E0,8.959017376E0
8.139685917E0,-7.707023163E0,-1.568139038E0,3.964954834E0,8.807844964E0
8.149711917E0,-8.074958038E0,-7.586224365E-1,3.621868286E0,8.882476299E0
8.159737917E0,-8.310867462E0,-4.469705200E-1,3.106789398E0,8.883830310E0
8.169763917E0,-8.431666260E0,-5.604345703E-1,2.430196381E0,8.792777563E0
8.179789917E0,-8.394693146E0,-1.274300079E0,1.736987915E0,8.666708759E0
8.189815917E0,-8.050858154E0,-2.392175446E0,1.200204163E0,8.484062141E0
8.199841917E0,-7.552394714E0,-3.446133728E0,8.580157471E-1,8.345699169E0
8.209867917E0,-7.309150543E0,-4.348906403E0,4.427792358E-1,8.516614469E0
8.219893917E0,-7.249424744E0,-5.034929810E0,-1.148112488E-1,8.827109319E0
8.229919917E0,-7.341932373E0,-5.483696594E0,-6.512956238E-1,9.186897479E0
8.239945917E0,-7.388635254E0,-5.663921814E0,-1.037043457E0,9.367358238E0
8.249970917E0,-7.417525177E0,-5.587879944E0,-1.301244049E0,9.377489968E0
8.259996917E0,-7.266040192E0,-5.407505035E0,-1.441053314E0,9.171318631E0
8.270022917E0,-7.204368439E0,-5.236560516E0,-1.512754211E0,9.033986714E0
8.280048917E0,-7.119944000E0,-5.069807281E0,-1.581311646E0,8.882403670E0
8.290074917E0,-6.996001740E0,-4.908592529E0,-1.812131653E0,8.736254465E0
8.300100917E0,-6.978338470E0,-4.760550385E0,-2.402204590E0,8.782404834E0
8.310126917E0,-7.095395050E0,-4.670288086E0,-2.976709900E0,9.000945703E0
8.320152917E0,-7.320526886E0,-4.678820343E0,-3.168461151E0,9.247735926E0
8.330178917E0,-7.583529968E0,-4.715943146E0,-2.892884216E0,9.387162810E0
8.340204917E0,-7.747588806E0,-4.732408905E0,-2.466570740E0,9.407698846E0
8.350230917E0,-7.810308380E0,-4.736749878E0,-2.076481934E0,9.367469969E0
8.360255917E0,-7.745193787E0,-4.727768555E0,-1.913620605E0,9.273713718E0
8.370281917E0,-7.620203705E0,-4.623884583E0,-1.911225586E0,9.115952851E0
8.380307917E0,-7.439978485E0,-4.421056366E0,-1.820364532E0,8.843797051E0
8.390333917E0,-7.452851715E0,-4.236639862E0,-1.637145538E0,8.727792477E0
8.400359917E0,-7.552843781E0,-4.048481140E0,-1.453926544E0,8.691924477E0
8.410386875E0,-7.753127289E0,-3.858376465E0,-1.304986267E0,8.757913042E0
8.420412875E0,-8.099207611E0,-3.791166229E0,-1.232686615E0,9.027160218E0
8.430438875E0,-8.505911865E0,-3.890559540E0,-1.451082458E0,9.465338372E0
8.440464875E0,-8.864116974E0,-4.039948883E0,-2.354304199E0,1.002180148E1
8.450490875E0,-9.172924805E0,-4.268074493E0,-3.361559601E0,1.066110183E1
8.460516875E0,-9.275311890E0,-4.735103302E0,-3.641028442E0,1.103221202E1
8.470542875E0,-9.145831146E0,-5.486840057E0,-2.987637177E0,1.107599283E1
8.480567875E0,-9.029822388E0,-6.136638794E0,-2.375110931E0,1.117305598E1
8.490593875E0,-9.147477722E0,-6.334826660E0,-2.642904053E0,1.143640325E1
8.500619875E0,-9.243727570E0,-5.893244934E0,-3.306773529E0,1.145039678E1
8.510645875E0,-9.201515350E0,-5.645061035E0,-3.433709564E0,1.132806074E1
8.520671875E0,-9.252259827E0,-5.933361511E0,-3.137774963E0,1.143042967E1
8.530697875E0,-9.263336792E0,-6.387367401E0,-3.133583679E0,1.168020623E1
8.540723875E0,-9.642198944E0,-6.498885498E0,-3.226091309E0,1.206711143E1
8.550749875E0,-1.020008881E1,-5.977369995E0,-3.284469910E0,1.227022845E1
8.560775875E0,-1.046339127E1,-4.996459808E0,-3.966451721E0,1.225479117E1
8.570801875E0,-1.053988220E1,-3.933669891E0,-4.656666412E0,1.217568962E1
8.580827875E0,-1.067355423E1,-3.219505005E0,-4.716392212E0,1.210513643E1
8.590853875E0,-1.092772568E1,-3.041824493E0,-3.909719696E0,1.199807455E1
8.600878875E0,-1.087398743E1,-3.826343079E0,-2.411185913E0,1.177702515E1
8.610904875E0,-1.029529083E1,-5.152435455E0,-1.255139923E0,1.158084542E1
8.620930875E0,-1.031055908E1,-6.485413513E0,-1.021775208E0,1.222343003E1
8.630956875E0,-1.051787796E1,-7.884703674E0,-1.072968750E0,1.318884266E1
8.640982875E0,-1.036759048E1,-9.186097412E0,-7.566764832E-1,1.387241426E1
8.651008875E0,-9.791887665E0,-9.973909149E0,-1.071771240E-1,1.397753250E1
8.661034875E0,-9.054670715E0,-9.720186768E0,5.665718079E-1,1.329624369E1
8.671060875E0,-8.502618713E0,-7.649842072E0,9.551637268E-1,1.147723601E1
8.681086875E0,-8.069120178E0,-5.200186157E0,1.241368561E0,9.679547119E0
8.691112875E0,-7.782915344E0,-3.362757111E0,1.474284210E0,8.605545920E0
8.701138875E0,-7.574848022E0,-1.916913757E0,1.943857727E0,8.051798792E0
8.711163875E0,-7.403454437E0,-8.014334106E-1,2.773731995E0,7.946510070E0
8.721189875E0,-7.459288330E0,1.365161133E-1,3.817212067E0,8.380377498E0
8.731215875E0,-7.630681915E0,9.123527527E-1,4.886588287E0,9.107054361E0
8.741241875E0,-7.834707642E0,1.368154907E0,5.805677032E0,9.846846068E0
8.751267875E0,-7.995173950E0,1.467548218E0,6.566245422E0,1.044950158E1
8.761293875E0,-7.971223755E0,6.828799438E-1,6.714586945E0,1.044473126E1
8.771319875E0,-7.887098694E0,-1.302291870E0,5.798342285E0,9.875376609E0
8.781345875E0,-7.671996002E0,-3.362158356E0,4.649780731E0,9.580401469E0
8.791371875E0,-7.445067902E0,-4.972060547E0,3.515589294E0,9.618200987E0
8.801397875E0,-7.332801361E0,-6.305337982E0,2.446662140E0,9.975641257E0
8.811423875E0,-7.434889069E0,-7.323370972E0,1.487007751E0,1.054137230E1
8.821449875E0,-7.821684723E0,-8.054001617E0,5.093907166E-1,1.123855742E1
8.831474875E0,-8.308771820E0,-8.342302094E0,-6.141728210E-1,1.179011881E1
8.841500875E0,-8.593779144E0,-8.068521423E0,-1.551673279E0,1.188956551E1
8.851526875E0,-8.756939850E0,-7.224277039E0,-1.969005432E0,1.152176882E1
8.861552875E0,-8.860674133E0,-5.983956299E0,-1.864822083E0,1.085342529E1
8.871578875E0,-8.803043976E0,-4.667144623E0,-1.300794983E0,1.004827795E1
8.881604875E0,-8.848399658E0,-3.526965637E0,-7.020401001E-1,9.551257688E0
8.891630875E0,-9.026978302E0,-2.507286072E0,-3.243754578E-1,9.374328784E0
8.901656875E0,-9.050180054E0,-1.601070557E0,-8.502319336E-2,9.191105204E0
8.911682875E0,-9.048234100E0,-9.997709656E-1,-4.176315308E-2,9.103396425E0
8.921708875E0,-9.142537994E0,-7.705975342E-1,-4.311035156E-1,9.185078757E0
8.931734875E0,-9.098230133E0,-8.946894836E-1,-1.009351044E0,9.197665484E0
8.941759875E0,-8.727600861E0,-1.197659454E0,-1.523082733E0,8.940088700E0
8.951785875E0,-8.213120728E0,-1.668729858E0,-2.277513885E0,8.684876564E0
8.961811875E0,-7.864645386E0,-2.172432404E0,-3.355572052E0,8.822243104E0
8.971837875E0,-7.653284912E0,-2.599344635E0,-3.794459381E0,8.929013634E0
8.981863875E0,-7.545808411E0,-2.881058807E0,-3.162922668E0,8.674318661E0
8.991889875E0,-7.580835571E0,-3.115770721E0,-2.290686493E0,8.510249101E0
9.001915875E0,-7.718998260E0,-3.322490845E0,-1.736838226E0,8.581287000E0
9.011941875E0,-7.802524567E0,-3.420387268E0,-1.643582153E0,8.676393316E0
9.021967875E0,-7.761509857E0,-3.343896332E0,-1.973047028E0,8.678455653E0
9.031993875E0,-7.657476196E0,-3.154540100E0,-2.455942841E0,8.638270670E0
9.042019875E0,-7.647447052E0,-3.093167725E0,-2.727029114E0,8.688372734E0
9.052045875E0,-7.615713043E0,-3.264561310E0,-2.744093628E0,8.728487586E0
9.062070875E0,-7.520061951E0,-3.690874786E0,-2.647245026E0,8.785316992E0
9.072096875E0,-7.585475922E0,-4.323908386E0,-2.557132416E0,9.098052258E0
9.082122875E0,-7.949668579E0,-4.957690430E0,-2.504142609E0,9.697765470E0
9.092148875E0,-8.579409027E0,-5.182073822E0,-2.398162994E0,1.030588832E1
9.102174875E0,-9.317973175E0,-4.825515289E0,-2.134112091E0,1.070815840E1
9.112200875E0,-9.782756653E0,-4.071832581E0,-1.518442383E0,1.070456984E1
9.122226875E0,-9.836045837E0,-3.709735565E0,-6.965016174E-1,1.053541884E1
9.132252875E0,-9.692644043E0,-3.815266113E0,-1.824705505E-1,1.041810441E1
9.142278875E0,-9.717642059E0,-4.076323242E0,-3.300636292E-1,1.054314566E1
9.152304875E0,-9.961035919E0,-4.054618378E0,-9.238787842E-1,1.079424471E1
9.162330875E0,-1.015458344E1,-3.804338837E0,-1.759291534E0,1.098561175E1
9.172355875E0,-1.007180557E1,-3.708987122E0,-2.568658447E0,1.103611613E1
9.182381875E0,-9.950408020E0,-4.162993011E0,-3.404669952E0,1.131074304E1
9.192407875E0,-9.919422455E0,-4.938829651E0,-4.408482513E0,1.192567391E1
9.202433875E0,-9.848470001E0,-5.673950958E0,-5.433700562E0,1.259806265E1
9.212459875E0,-9.820328522E0,-6.173611908E0,-5.489534454E0,1.283305594E1
9.222485875E0,-1.023287064E1,-6.538103943E0,-4.413272552E0,1.292034904E1
9.232511875E0,-1.126497437E1,-6.557413788E0,-2.897075500E0,1.335261658E1
9.242537875E0,-1.239437576E1,-5.932313690E0,-1.602567444E0,1.383405648E1
9.252563875E0,-1.286454803E1,-4.740791473E0,-7.686515808E-1,1.373180706E1
9.262589875E0,-1.317949310E1,-3.638932800E0,-2.067201233E-1,1.367419481E1
9.272615875E0,-1.340657089E1,-3.150648193E0,4.013154602E-1,1.377765514E1
9.282641875E0,-1.330523163E1,-3.344944153E0,1.013841705E0,1.375666075E1
9.292667875E0,-1.217702774E1,-3.893104248E0,1.267564087E0,1.284690562E1
9.302692875E0,-1.028750702E1,-4.470303955E0,9.873468018E-1,1.126016305E1
9.312718875E0,-8.780440979E0,-5.060676270E0,4.620890808E-1,1.014495512E1
9.322744875E0,-7.683072968E0,-5.502407684E0,6.077362061E-2,9.450385917E0
9.332770875E0,-6.949897614E0,-5.852828979E0,-2.897973633E-1,9.090691196E0
9.342796875E0,-6.387068024E0,-6.084098053E0,-5.399272156E-1,8.837556702E0
9.352822875E0,-5.813610535E0,-6.328839111E0,-7.099736023E-1,8.623011914E0
9.362848875E0,-5.582491150E0,-6.709048462E0,-7.195536804E-1,8.757470879E0
9.372874875E0,-5.510041809E0,-7.072043610E0,-5.445675659E-1,8.981698914E0
9.382900875E0,-5.655688934E0,-7.318580933E0,-8.517288208E-2,9.249632350E0
9.392926875E0,-6.132597198E0,-7.314838715E0,8.602610779E-1,9.584136004E0
9.402952875E0,-6.934180298E0,-6.915618896E0,2.320324860E0,1.006441993E1
9.412977500E0,-7.537725220E0,-6.121669922E0,3.650758209E0,1.037401463E1
9.423003500E0,-7.919431458E0,-5.097948761E0,4.157155151E0,1.029506751E1
9.433029500E0,-8.033494263E0,-4.146377563E0,3.991749115E0,9.882486426E0
9.443055500E0,-8.155340881E0,-3.473077698E0,3.635489960E0,9.580638853E0
9.453081500E0,-8.359665985E0,-3.088976440E0,3.239263916E0,9.482542990E0
9.463107500E0,-8.338709564E0,-2.917133789E0,2.689157867E0,9.234463535E0
9.473133500E0,-8.145012360E0,-3.066223755E0,1.932780762E0,8.915076888E0
9.483159500E0,-8.026309204E0,-3.366948395E0,1.291514282E0,8.799203945E0
9.493185500E0,-7.943830719E0,-3.585793304E0,7.530839539E-1,8.748113828E0
9.503211500E0,-7.940238190E0,-3.661086731E0,1.652563477E-1,8.745184287E0
9.513237500E0,-7.992778931E0,-3.740122375E0,-2.969824219E-1,8.829565617E0
9.523263500E0,-7.928712158E0,-3.783083038E0,-4.679269409E-1,8.797451300E0
9.533288500E0,-7.821684723E0,-3.797453156E0,-4.438270569E-1,8.706111924E0
9.543314500E0,-7.591613159E0,-3.695964203E0,-3.703298950E-1,8.451620317E0
9.553340500E0,-7.376809845E0,-3.678450623E0,-3.165916443E-1,8.249154668E0
9.563366500E0,-7.210505676E0,-3.813170471E0,-3.897894287E-1,8.166002507E0
9.573392500E0,-6.983128510E0,-4.051474915E0,-6.721023560E-1,8.101250171E0
9.583418500E0,-6.841223602E0,-4.394860840E0,-1.111438751E0,8.206853129E0
9.593444500E0,-6.935228119E0,-4.779710541E0,-1.754651184E0,8.603593592E0
9.603470500E0,-7.075785828E0,-5.125192108E0,-2.606080627E0,9.117345856E0
9.613496500E0,-7.200476532E0,-5.385949860E0,-3.568130035E0,9.674030707E0
9.623522500E0,-7.230114899E0,-5.518723755E0,-3.960763550E0,9.920610930E0
9.633548500E0,-7.261549530E0,-5.477110291E0,-3.321592712E0,9.683068566E0
9.643574500E0,-7.272776184E0,-5.196743317E0,-2.312091980E0,9.232831843E0
9.653599500E0,-7.223229218E0,-4.896767120E0,-1.797462158E0,8.909783318E0
9.663625500E0,-7.172335052E0,-4.687352600E0,-1.638642426E0,8.723463389E0
9.673651500E0,-7.050039368E0,-4.477788391E0,-1.501677246E0,8.485792745E0
9.683677500E0,-6.970704346E0,-4.350103912E0,-1.338217163E0,8.324959357E0
9.693703500E0,-7.032974854E0,-4.289180603E0,-1.214424591E0,8.326742017E0
9.703729500E0,-7.252568207E0,-4.370461578E0,-1.127156067E0,8.542315892E0
9.713755500E0,-7.655230865E0,-4.542004852E0,-1.122964783E0,8.971812391E0
9.723781500E0,-8.066874847E0,-4.675826569E0,-1.264869690E0,9.409448402E0
9.733807500E0,-8.434360657E0,-4.700674896E0,-1.626667328E0,9.791875753E0
9.743833500E0,-8.857830048E0,-4.549189911E0,-2.356399841E0,1.023273679E1
9.753859500E0,-9.131910095E0,-4.327201538E0,-2.917283478E0,1.051793697E1
9.763884500E0,-9.059460754E0,-4.463717651E0,-2.625839539E0,1.043521144E1
9.773910500E0,-9.127269745E0,-4.983137512E0,-1.547332306E0,1.051346516E1
9.783936500E0,-9.163494415E0,-5.637726288E0,-6.132746887E-1,1.077634880E1
9.793962500E0,-9.184301147E0,-5.991291046E0,-7.676037598E-1,1.099255073E1
9.803988500E0,-9.178014221E0,-5.870941315E0,-1.732347565E0,1.103199552E1
9.814014500E0,-9.104517059E0,-5.633085938E0,-2.645748138E0,1.102832133E1
9.824040500E0,-9.345366211E0,-5.635031891E0,-3.244053955E0,1.138478547E1
9.834066500E0,-9.827064514E0,-5.704637146E0,-3.545826416E0,1.190323346E1
9.844092500E0,-1.054467224E1,-5.529201965E0,-3.631298676E0,1.244783182E1
9.854118500E0,-1.092233688E1,-4.902455292E0,-4.180656281E0,1.268106454E1
9.864144500E0,-1.119776413E1,-3.897894287E0,-4.853956146E0,1.281188478E1
9.874170500E0,-1.138846756E1,-2.918031921E0,-5.020260315E0,1.278339224E1
9.884195500E0,-1.160327087E1,-2.312840424E0,-4.550537109E0,1.267645510E1
9.894221500E0,-1.189426575E1,-2.521656189E0,-3.218906250E0,1.257750631E1
9.904247500E0,-1.168919220E1,-3.786226501E0,-1.593885498E0,1.239004424E1
9.914273500E0,-1.122186401E1,-5.494324493E0,-1.017883301E0,1.253610466E1
9.924299500E0,-1.116094070E1,-7.240144043E0,-1.177900543E0,1.335566295E1
9.934325500E0,-1.101005447E1,-8.832233276E0,-9.610015869E-1,1.414754990E1
9.944351500E0,-1.044482986E1,-1.002240829E1,-3.402424622E-1,1.447960303E1
9.954377500E0,-9.588311005E0,-1.046503784E1,3.716770935E-1,1.419826992E1
9.964403500E0,-8.673563232E0,-9.881251831E0,1.271156616E0,1.320930263E1
9.974429500E0,-8.554560699E0,-8.147856445E0,1.994602203E0,1.198108974E1
9.984455500E0,-8.337362366E0,-6.157295837E0,2.418520660E0,1.064298574E1
9.994481500E0,-7.947722626E0,-4.218228149E0,2.749482422E0,9.408474757E0
1.000450650E1,-7.411238251E0,-2.647394714E0,3.046165466E0,8.438855090E0
1.001453250E1,-6.825805664E0,-1.461860046E0,3.657643890E0,7.880800504E0
1.002455850E1,-6.475384369E0,-5.342390442E-1,4.291575623E0,7.786760264E0
1.003458450E1,-6.203100586E0,1.830693054E-1,4.801714783E0,7.846555684E0
1.004461050E1,-6.032006378E0,5.312452698E-1,5.288203125E0,8.039428759E0
1.005463650E1,-5.903573456E0,5.809419250E-1,5.854325867E0,8.334434859E0
1.006466250E1,-5.793103180E0,2.059716797E-1,6.244863739E0,8.520609832E0
1.007468850E1,-6.062692566E0,-1.125808868E0,5.842051392E0,8.494306989E0
1.008471450E1,-6.579118652E0,-2.849025421E0,4.962929535E0,8.719656969E0
1.009474050E1,-7.182813263E0,-4.304149475E0,4.192182312E0,9.364448815E0
1.010476650E1,-7.912096710E0,-5.439987488E0,3.503314819E0,1.022095656E1
1.011479250E1,-8.635691986E0,-6.260431366E0,2.703378296E0,1.100347360E1
1.012481750E1,-9.264085236E0,-6.763535156E0,1.706900482E0,1.159664574E1
1.013484350E1,-9.635612640E0,-6.899452515E0,5.908213806E-1,1.186577203E1
1.014486950E1,-9.637408905E0,-6.699169006E0,-4.218228149E-1,1.174463496E1
1.015489550E1,-9.601782990E0,-6.312972107E0,-1.231638794E0,1.155702330E1
1.016492150E1,-9.506281586E0,-5.769452362E0,-1.651815033E0,1.124208446E1
1.017494750E1,-9.158255310E0,-4.963827667E0,-1.777703247E0,1.056756615E1
1.018497350E1,-8.681646423E0,-3.984713745E0,-1.539398804E0,9.675674495E0
1.019499950E1,-8.315208435E0,-3.176544342E0,-1.197958832E0,8.981549456E0
1.020502550E1,-8.009993134E0,-2.637664948E0,-1.049766998E0,8.498192580E0
1.021505150E1,-7.863896942E0,-2.277364197E0,-1.120719452E0,8.263369464E0
1.022507750E1,-7.977660370E0,-2.183209991E0,-1.334325256E0,8.377940960E0
1.023510350E1,-8.233478394E0,-2.184257813E0,-1.662742310E0,8.679047219E0
1.024512850E1,-8.225095825E0,-2.182910614E0,-2.583327942E0,8.893305535E0
1.025515450E1,-8.001311188E0,-2.248025208E0,-3.606150970E0,9.059741877E0
1.026518050E1,-7.766599274E0,-2.377056885E0,-3.426524506E0,8.815414562E0
1.027520650E1,-7.836054840E0,-2.603984985E0,-2.221829681E0,8.551082995E0
1.028523250E1,-7.986492004E0,-2.813100128E0,-1.279838562E0,8.563619189E0
1.029525850E1,-8.068222046E0,-2.998265076E0,-1.012793884E0,8.666692097E0
1.030528450E1,-8.042176208E0,-3.237018585E0,-1.320553894E0,8.769193240E0
1.031531050E1,-7.835755463E0,-3.363655243E0,-1.955383759E0,8.748529357E0
1.032533650E1,-7.635621643E0,-3.325484619E0,-2.393522644E0,8.665478433E0
1.033536250E1,-7.655230865E0,-3.202141113E0,-2.567760315E0,8.686176394E0
1.034538850E1,-7.740254059E0,-3.001707916E0,-2.610870667E0,8.702782828E0
1.035541350E1,-7.920479279E0,-2.864892426E0,-2.588716736E0,8.811529660E0
1.036543950E1,-8.179440765E0,-2.893632660E0,-2.493963776E0,9.027525493E0
1.037546550E1,-8.332572327E0,-3.101999359E0,-2.355052643E0,9.197849453E0
1.038549150E1,-8.404123535E0,-3.467988281E0,-2.312990112E0,9.381159756E0
1.039551750E1,-8.404422913E0,-3.811823273E0,-2.357297974E0,9.524766396E0
1.040554350E1,-8.682394867E0,-4.072431335E0,-2.380649414E0,9.881101621E0
1.041556950E1,-9.066196747E0,-4.026327209E0,-2.142794037E0,1.014883247E1
1.042559550E1,-9.147477722E0,-3.547173615E0,-1.428030396E0,9.914537818E0
1.043562150E1,-9.204509125E0,-3.338058472E0,-5.926176453E-1,9.809017191E0
1.044564750E1,-9.144933014E0,-3.674858093E0,-1.365161133E-1,9.856623077E0
1.045567350E1,-9.071735229E0,-4.127067719E0,-4.637356567E-1,9.977179901E0
1.046569950E1,-9.274114380E0,-4.308041382E0,-1.474882965E0,1.033168417E1
1.047572450E1,-9.702822876E0,-4.195774841E0,-2.487227783E0,1.085981585E1
1.048575050E1,-9.946965179E0,-4.119283905E0,-3.043022003E0,1.118796671E1
1.049577650E1,-9.986183624E0,-4.347409515E0,-3.448229370E0,1.142427760E1
1.050580250E1,-1.010398865E1,-4.898862762E0,-4.062252502E0,1.194116152E1
1.051582850E1,-1.034738251E1,-5.464536438E0,-4.753215637E0,1.263022336E1
1.052585450E1,-1.075842773E1,-6.024671631E0,-5.136718140E0,1.335763111E1
1.053588050E1,-1.118519028E1,-6.261778564E0,-4.154161377E0,1.347499199E1
1.054590650E1,-1.198333054E1,-6.379433899E0,-2.409389648E0,1.378776799E1
1.055593250E1,-1.310749283E1,-6.187383270E0,-7.827223206E-1,1.451560313E1
1.056595850E1,-1.378213989E1,-5.440137177E0,2.567161560E-1,1.481918944E1
1.057598450E1,-1.392898453E1,-4.523742828E0,7.967930603E-1,1.466682441E1
1.058601050E1,-1.402089340E1,-3.836671600E0,1.147962799E0,1.458160894E1
1.059603550E1,-1.355506210E1,-3.491339722E0,1.306333466E0,1.405829537E1
1.060606150E1,-1.222507782E1,-3.426674194E0,1.178199921E0,1.275079522E1
1.061608750E1,-9.875563660E0,-3.501817932E0,7.116201782E-1,1.050218500E1
1.062611350E1,-8.045020294E0,-3.870501251E0,2.219883728E-1,8.930420500E0
1.063613950E1,-7.080725555E0,-4.493655396E0,-8.128097534E-2,8.386669172E0
1.064616550E1,-6.456224213E0,-5.236111450E0,-3.067121887E-1,8.318279063E0
1.065619150E1,-5.913752289E0,-6.004313965E0,-3.703298950E-1,8.435721460E0
1.066621750E1,-5.386847992E0,-6.692433014E0,-3.243754578E-1,8.597209453E0
1.067624350E1,-4.990322571E0,-7.293882294E0,-1.432521057E-1,8.838809843E0
1.068626950E1,-4.962779846E0,-7.762707367E0,3.023712158E-1,9.218472640E0
1.069629550E1,-5.512736206E0,-8.006550293E0,1.055006104E0,9.777941805E0
1.070632150E1,-6.516698456E0,-7.710765381E0,2.091450806E0,1.031006440E1
1.071634650E1,-7.041956177E0,-6.953041077E0,3.080444183E0,1.036450980E1
1.072637250E1,-7.002288666E0,-5.818550262E0,3.492088165E0,9.751012946E0
1.073639850E1,-6.986271973E0,-4.654421082E0,3.435505829E0,9.070519940E0
1.074642450E1,-7.303162994E0,-3.684288483E0,3.366948395E0,8.845705898E0
1.075645050E1,-7.823630676E0,-2.973716125E0,3.313808899E0,9.001861695E0
1.076647650E1,-8.381969604E0,-2.530787201E0,3.127895508E0,9.297635646E0
1.077650250E1,-8.846004639E0,-2.329904938E0,2.791395264E0,9.564106995E0
1.078652850E1,-9.094637604E0,-2.419718170E0,2.244133301E0,9.674895526E0
1.079655450E1,-9.117839355E0,-2.715952148E0,1.533710632E0,9.636579211E0
1.080658050E1,-8.878936157E0,-3.022215271E0,8.918453979E-1,9.421500976E0
1.081660650E1,-8.636290741E0,-3.402723999E0,3.417393494E-1,9.288747717E0
1.082663250E1,-8.651858368E0,-3.878584442E0,-2.963836670E-2,9.481505625E0
1.083665750E1,-8.745114441E0,-4.261039124E0,-2.312690735E-1,9.730722809E0
1.084668350E1,-8.711284790E0,-4.544998627E0,-4.656816101E-1,9.836684125E0
1.085670950E1,-8.398585052E0,-4.678670654E0,-6.077362061E-1,9.633043822E0
1.086673550E1,-7.804919586E0,-4.747228088E0,-8.282276917E-1,9.172726169E0
1.087676150E1,-7.315138092E0,-4.784650269E0,-1.251697083E0,8.830111499E0
1.088678750E1,-7.057074738E0,-4.818479919E0,-1.846260681E0,8.742352720E0
1.089681350E1,-6.859186249E0,-4.836292877E0,-2.471959534E0,8.749214178E0
1.090683950E1,-6.539451141E0,-4.908293152E0,-3.181783447E0,8.773796715E0
1.091686550E1,-6.272107086E0,-5.016667786E0,-3.683989105E0,8.836178965E0
1.092689150E1,-6.295757904E0,-5.151537323E0,-3.348985748E0,8.797193298E0
1.093691750E1,-6.477929077E0,-5.184917908E0,-2.598446503E0,8.694760668E0
1.094694250E1,-6.575526123E0,-5.086572418E0,-1.839824066E0,8.514441576E0
1.095696850E1,-6.836732941E0,-4.890480194E0,-1.404678955E0,8.522372721E0
1.096699450E1,-7.006030884E0,-4.436923370E0,-1.368753662E0,8.405013047E0
1.097702050E1,-7.139702911E0,-4.011957092E0,-1.332379303E0,8.297372595E0
1.098704650E1,-7.377109222E0,-3.662733307E0,-1.194366302E0,8.322491611E0
1.099707250E1,-7.507937164E0,-3.377875671E0,-1.072220306E0,8.302338279E0
1.100709850E1,-7.542066193E0,-3.168461151E0,-1.079255676E0,8.251466617E0
1.101712450E1,-7.520061951E0,-3.115770721E0,-1.280137939E0,8.240031072E0
1.102715050E1,-7.511679382E0,-3.119363251E0,-1.845811615E0,8.340430130E0
1.103717650E1,-7.820636902E0,-3.249592438E0,-2.329156494E0,8.783346887E0
1.104720250E1,-8.379275208E0,-3.570974121E0,-2.747536469E0,9.513835495E0
1.105722850E1,-8.915310516E0,-4.068988495E0,-2.877316589E0,1.021363695E1
1.106725350E1,-9.257498932E0,-4.712649994E0,-2.461331635E0,1.067560349E1
1.107727950E1,-9.557026062E0,-5.365143127E0,-1.780846710E0,1.110373464E1
1.108730550E1,-9.776170349E0,-5.670059052E0,-1.522034912E0,1.140349361E1
1.109733150E1,-9.892478485E0,-5.552553406E0,-2.067650299E0,1.153113861E1
1.110735750E1,-9.794731750E0,-5.286706238E0,-2.585722961E0,1.142681041E1
1.111738350E1,-9.807904358E0,-5.386249237E0,-2.845283203E0,1.154566175E1
1.112740950E1,-1.002959335E1,-5.688171387E0,-3.228935394E0,1.197389078E1
1.113743550E1,-1.032433044E1,-5.845494232E0,-3.958817596E0,1.250735139E1
1.114746150E1,-1.056967026E1,-5.701942749E0,-4.770429840E0,1.292234814E1
1.115748750E1,-1.066098038E1,-5.298381958E0,-5.117108917E0,1.295816953E1
1.116751350E1,-1.068014053E1,-4.917424164E0,-4.698279877E0,1.266176512E1
1.117753950E1,-1.076845688E1,-4.855453033E0,-3.879482574E0,1.243324064E1
1.118756450E1,-1.108025848E1,-5.103038177E0,-3.101699982E0,1.258704372E1
1.119759050E1,-1.122949814E1,-5.558990021E0,-2.397713928E0,1.275746960E1
1.120761650E1,-1.117052078E1,-6.161487122E0,-1.783391418E0,1.288118562E1
1.121764250E1,-1.109567642E1,-6.653214569E0,-1.597028961E0,1.303571252E1
1.122766850E1,-1.077100159E1,-6.868916016E0,-1.953587494E0,1.292335044E1
1.123769450E1,-9.982291718E0,-7.053332520E0,-1.994153137E0,1.238435684E1
1.124772050E1,-8.948391724E0,-7.437882843E0,-1.558558960E0,1.173988593E1
1.125774650E1,-8.257129211E0,-7.413184204E0,-5.230123901E-1,1.110896146E1
1.126777250E1,-8.011789398E0,-6.968309326E0,1.062041473E0,1.067117783E1
1.127779850E1,-7.772287445E0,-6.047574005E0,2.330204315E0,1.011985453E1
1.128782450E1,-7.314539337E0,-4.794978790E0,3.067720642E0,9.268506743E0
1.129785050E1,-6.929839325E0,-3.491190033E0,3.318149872E0,8.439265341E0
1.130787550E1,-6.630761261E0,-2.456092529E0,3.346590729E0,7.822982482E0
1.131790150E1,-6.805747375E0,-1.639839935E0,3.601809998E0,7.872757307E0
1.132792750E1,-7.246281281E0,-1.150058441E0,4.056264954E0,8.383585879E0
1.133795350E1,-7.828121338E0,-1.084644470E0,4.588558044E0,9.138424494E0
1.134797950E1,-8.321495361E0,-1.163530426E0,5.294190674E0,9.931240758E0
1.135800550E1,-8.292755127E0,-1.302740936E0,6.020480347E0,1.033020354E1
1.136803150E1,-8.152945862E0,-1.879042511E0,6.501130829E0,1.059556648E1
1.137805750E1,-8.185727692E0,-3.210074615E0,6.036047974E0,1.066511097E1
1.138808350E1,-8.358468475E0,-4.614005127E0,4.726870422E0,1.065346622E1
1.139810950E1,-8.557704163E0,-5.522316284E0,3.216211853E0,1.068055693E1
1.140813562E1,-8.753497009E0,-5.924529877E0,1.915716248E0,1.074214750E1
1.141816163E1,-8.983568573E0,-5.902825012E0,9.008267212E-1,1.078699848E1
1.142818663E1,-9.024134216E0,-5.473966827E0,1.291813660E-1,1.055537773E1
1.143821262E1,-8.749006348E0,-4.843627625E0,-4.023632813E-1,1.000838333E1
1.144823862E1,-8.442144470E0,-4.423750763E0,-7.882608032E-1,9.563510295E0
1.145826463E1,-8.413404236E0,-4.124373322E0,-1.031654663E0,9.426565519E0
1.146829063E1,-8.331524506E0,-3.789519653E0,-1.144969025E0,9.224191773E0
1.147831662E1,-8.089627533E0,-3.474873962E0,-1.169218597E0,8.881660588E0
1.148834262E1,-7.848329315E0,-3.153941345E0,-1.321002960E0,8.560880087E0
1.149836862E1,-7.686066742E0,-2.818788300E0,-1.479822693E0,8.319318761E0
1.150839463E1,-7.531438293E0,-2.531086578E0,-1.657802582E0,8.116481469E0
1.151842063E1,-7.465575256E0,-2.279459839E0,-1.914967804E0,8.037278940E0
1.152844662E1,-7.490722961E0,-2.102078705E0,-2.239942017E0,8.096110523E0
1.153847262E1,-7.397915955E0,-1.990111542E0,-2.476899261E0,8.051380898E0
1.154849763E1,-7.504045258E0,-2.025587769E0,-3.104095001E0,8.369534444E0
1.155852363E1,-7.611372070E0,-2.220482483E0,-4.043092346E0,8.900006908E0
1.156854962E1,-7.695347443E0,-2.518512726E0,-3.904779968E0,8.989359555E0
1.157857562E1,-7.762407990E0,-2.815794525E0,-2.740501099E0,8.700231197E0
1.158860163E1,-7.996970215E0,-3.036286011E0,-1.640289001E0,8.709828550E0
1.159862763E1,-8.216264191E0,-3.335962830E0,-1.189725952E0,8.947127645E0
1.160865363E1,-8.290509796E0,-3.662583618E0,-1.375489655E0,9.167281125E0
1.161867962E1,-8.251590729E0,-3.879931641E0,-1.940863953E0,9.322530342E0
1.162870562E1,-8.083939362E0,-3.792064362E0,-2.412533112E0,9.249332070E0
1.163873163E1,-8.011190643E0,-3.589236145E0,-2.746488647E0,9.198097168E0
1.164875763E1,-8.069419556E0,-3.420836334E0,-2.949167175E0,9.247445064E0
1.165878262E1,-8.096513214E0,-3.342998199E0,-2.986289978E0,9.254571358E0
1.166880862E1,-8.172255707E0,-3.380719757E0,-2.998265076E0,9.338341549E0
1.167883463E1,-8.260721741E0,-3.534749451E0,-2.937641144E0,9.453238220E0
1.168886063E1,-8.362659760E0,-3.756588135E0,-2.718047791E0,9.562103140E0
1.169888663E1,-8.886121216E0,-3.812871094E0,-2.454595642E0,9.976280670E0
1.170891262E1,-9.585616608E0,-3.511547699E0,-2.133962402E0,1.042922857E1
1.171893862E1,-1.010877869E1,-2.946173401E0,-1.690883789E0,1.066425957E1
1.172896463E1,-1.012060410E1,-2.636617126E0,-1.007704468E0,1.050684755E1
1.173899063E1,-9.765692139E0,-2.805016937E0,-6.836283875E-1,1.018352644E1
1.174901662E1,-9.477990417E0,-3.209475861E0,-1.186732178E0,1.007677383E1
1.175904262E1,-9.658814392E0,-3.513643341E0,-2.007475433E0,1.047226540E1
1.176906863E1,-9.727371826E0,-3.616329803E0,-2.868634644E0,1.076701763E1
1.177909363E1,-9.855655060E0,-3.891457672E0,-3.607348480E0,1.119331687E1
1.178911962E1,-1.016850449E1,-4.454287262E0,-4.123774567E0,1.184249447E1
1.179914562E1,-1.047147446E1,-5.061424713E0,-4.582271118E0,1.250068022E1
1.180917162E1,-1.066292633E1,-5.638025665E0,-4.536915436E0,1.288677357E1
1.181919763E1,-1.117276611E1,-6.315367126E0,-3.905678101E0,1.341524826E1
1.182922363E1,-1.223720261E1,-6.971452789E0,-2.617007904E0,1.432476918E1
1.183924962E1,-1.364457596E1,-7.300318909E0,-1.073866882E0,1.551200501E1
1.184927562E1,-1.451546494E1,-6.949298859E0,1.213975525E-1,1.609367001E1
1.185930163E1,-1.413226181E1,-5.732329559E0,6.604266357E-1,1.526488092E1
1.186932763E1,-1.293864395E1,-4.437821503E0,6.026467896E-1,1.369182056E1
1.187935363E1,-1.144774429E1,-3.814966736E0,3.977229309E-1,1.207323503E1
1.188937962E1,-9.782457275E0,-3.754492493E0,1.766326904E-1,1.047968909E1
1.189940463E1,-8.580456848E0,-3.993246002E0,-1.796264648E-2,9.464173287E0
1.190943063E1,-7.747289429E0,-4.352049866E0,-9.430389404E-3,8.885995749E0
1.191945663E1,-6.828350372E0,-4.749174042E0,1.142124939E-1,8.318297144E0
1.192948262E1,-6.152206421E0,-5.293891296E0,2.368075562E-1,8.119791052E0
1.193950862E1,-5.549110565E0,-5.925428009E0,3.224295044E-1,8.124486811E0
1.194953463E1,-5.069208527E0,-6.522087250E0,5.526507568E-1,8.278883985E0
1.195956063E1,-4.872517548E0,-7.089557190E0,9.886940002E-1,8.659143389E0
1.196958662E1,-5.083878021E0,-7.567662964E0,1.780697021E0,9.289037644E0
1.197961262E1,-5.868097229E0,-7.658524017E0,2.849624176E0,1.006021437E1
1.198963862E1,-7.359296265E0,-7.022197266E0,3.627406769E0,1.079947109E1
1.199966463E1,-7.868836670E0,-5.783523102E0,3.565136261E0,1.039605341E1
1.200968963E1,-7.878865814E0,-4.431384888E0,2.976560211E0,9.517016824E0
1.201971562E1,-8.060288544E0,-3.324885864E0,2.505789185E0,9.072050312E0
1.202974162E1,-8.266858978E0,-2.630330200E0,2.051334229E0,8.914458281E0
1.203976763E1,-8.482111359E0,-2.374961243E0,1.560504913E0,8.945492138E0
1.204979363E1,-8.793014832E0,-2.691253510E0,9.695338440E-1,9.246618363E0
1.205981962E1,-9.168434143E0,-3.479813690E0,2.615061951E-1,9.810080196E0
1.206984562E1,-9.113947449E0,-4.216880951E0,-1.001417542E-1,1.004271634E1
1.207987163E1,-8.904233551E0,-4.630321198E0,-2.583627319E-1,1.003952194E1
1.208989763E1,-8.850794678E0,-4.702022095E0,-3.805087280E-1,1.002947482E1
1.209992363E1,-8.680598602E0,-4.546944580E0,-3.632945251E-1,9.806094025E0
1.210994962E1,-8.289312286E0,-4.136348419E0,-2.498304749E-1,9.267388612E0
1.211997562E1,-7.766599274E0,-3.658691711E0,-1.733395386E-1,8.586974782E0
1.213000063E1,-7.127278748E0,-3.335813141E0,-1.691482544E-1,7.871109375E0
1.214002663E1,-6.630012817E0,-3.184028778E0,-4.314028931E-1,7.367578820E0
1.215005262E1,-6.441255341E0,-3.268602905E0,-8.476872253E-1,7.272696126E0
1.216007862E1,-6.488556976E0,-3.611390076E0,-1.264121246E0,7.532696226E0
1.217010463E1,-6.743027802E0,-4.007915497E0,-1.544188843E0,7.994768899E0
1.218013063E1,-7.109016724E0,-4.323159943E0,-1.675765228E0,8.487403594E0
1.219015663E1,-7.320826263E0,-4.511019287E0,-1.756297760E0,8.776580998E0
1.220018262E1,-7.445367279E0,-4.630021820E0,-1.779349823E0,8.946322248E0
1.221020862E1,-7.438631287E0,-4.668940887E0,-1.771116943E0,8.959302409E0
1.222023463E1,-7.307503967E0,-4.535418549E0,-1.621278534E0,8.752038604E0
1.223026063E1,-7.083719330E0,-4.334386597E0,-1.418150940E0,8.424793101E0
1.224028662E1,-6.953041077E0,-4.111799469E0,-1.304237823E0,8.182463650E0
1.225031162E1,-6.930587769E0,-4.025429077E0,-1.160087585E0,8.098328795E0
1.226033763E1,-7.086563416E0,-4.022135925E0,-8.948391724E-1,8.197420057E0
1.227036363E1,-7.399562531E0,-4.048032074E0,-6.599775696E-1,8.460239932E0
1.228038962E1,-7.951015778E0,-4.070186005E0,-6.042933655E-1,8.952666445E0
1.229041562E1,-8.864566040E0,-3.961961060E0,-8.110134888E-1,9.743480353E0
1.230044162E1,-9.930050354E0,-3.586691437E0,-1.253643036E0,1.063211533E1
1.231046763E1,-1.066906357E1,-3.066672821E0,-1.745819550E0,1.123749463E1
1.232049363E1,-1.047027695E1,-2.771037598E0,-1.841320953E0,1.098616455E1
1.233051962E1,-9.585466919E0,-3.186274109E0,-1.503473511E0,1.021244101E1
1.234054562E1,-8.925938416E0,-4.514312439E0,-1.142424316E0,1.006759786E1
1.235057163E1,-9.487570496E0,-6.339616699E0,-9.647438049E-1,1.145143940E1
1.236059763E1,-1.042132874E1,-7.539820862E0,-1.234482880E0,1.292195570E1
1.237062262E1,-1.093251572E1,-7.760012970E0,-2.048789520E0,1.356227266E1
1.238064862E1,-1.090886490E1,-6.910529480E0,-2.957549744E0,1.324786215E1
1.239067463E1,-1.023122406E1,-6.076014862E0,-3.433559875E0,1.238487932E1
1.240070063E1,-9.538764038E0,-6.045328674E0,-3.213966522E0,1.174153308E1
1.241072613E1,-9.332942047E0,-6.492897949E0,-2.445015564E0,1.162925759E1
1.242075212E1,-1.002839584E1,-6.653813324E0,-1.701362000E0,1.215469406E1
1.243077812E1,-1.117635864E1,-6.837780762E0,-1.409618683E0,1.317775638E1
1.244080413E1,-1.190175018E1,-6.716532898E0,-1.454974365E0,1.374337739E1
1.245083013E1,-1.189696014E1,-6.343658295E0,-1.445993042E0,1.355988780E1
1.246085612E1,-1.124656265E1,-6.003565521E0,-1.153650970E0,1.280073752E1
1.247088212E1,-1.043584854E1,-5.782924347E0,-1.651066589E-1,1.193215861E1
1.248090713E1,-9.993218994E0,-5.747448120E0,1.482517090E0,1.162305651E1
1.249093313E1,-9.762398987E0,-5.669909363E0,3.046015778E0,1.169318256E1
1.250095912E1,-9.550589447E0,-5.228776703E0,4.111949158E0,1.163881396E1
1.251098512E1,-9.087153168E0,-4.499942322E0,4.659959564E0,1.115979645E1
1.252101112E1,-8.399632874E0,-3.407214661E0,5.003794556E0,1.035378695E1
1.253103713E1,-7.837551727E0,-2.130669250E0,5.204826508E0,9.646615339E0
1.254106313E1,-7.778424683E0,-9.457333374E-1,5.492079163E0,9.568763536E0
1.255108912E1,-7.869435425E0,-2.245330811E-3,5.695506134E0,9.714258030E0
1.256111512E1,-8.002808075E0,5.474116516E-1,5.787115631E0,9.891173031E0
1.257114113E1,-8.152646484E0,6.481521606E-1,5.904172211E0,1.008687243E1
1.258116713E1,-7.608078918E0,1.237925720E-1,6.146218872E0,9.781318718E0
1.259119313E1,-7.222480774E0,-1.582658844E0,5.889951782E0,9.453071963E0
1.260121812E1,-7.711364136E0,-3.523971863E0,5.038073273E0,9.862337290E0
1.261124413E1,-8.145611115E0,-5.013973389E0,3.632795563E0,1.023172093E1
1.262127013E1,-8.628806305E0,-6.045777740E0,1.729802856E0,1.067707566E1
1.263129613E1,-9.092092896E0,-6.621630249E0,-2.270777893E-1,1.125005354E1
1.264132212E1,-9.200467529E0,-6.696025543E0,-1.641486511E0,1.149694911E1
1.265134812E1,-8.857380981E0,-6.196214905E0,-1.960622864E0,1.098591457E1
1.266137413E1,-8.349636841E0,-5.319787445E0,-1.361867981E0,9.993560838E0
1.267140013E1,-7.956105194E0,-4.349056091E0,-6.420149231E-1,9.089888993E0
1.268142612E1,-7.770790558E0,-3.370690613E0,-1.534309387E-1,8.471734306E0
1.269145212E1,-7.663912811E0,-2.563119965E0,5.972579956E-2,8.081380495E0
1.270147812E1,-7.698341217E0,-2.027982788E0,1.767823792E-1,7.962940644E0
1.271150413E1,-7.932005310E0,-1.828747101E0,1.302291870E-1,8.141129150E0
1.272152913E1,-8.162675629E0,-1.940863953E0,-1.044827271E-1,8.390896433E0
1.273155512E1,-8.259374542E0,-2.233206024E0,-4.334985352E-1,8.566936323E0
1.274158112E1,-8.390801239E0,-2.602338409E0,-7.734416199E-1,8.819065856E0
1.275160713E1,-8.625513153E0,-2.892285461E0,-1.147364044E0,9.169582138E0
1.276163313E1,-8.721613312E0,-3.004851379E0,-1.410367126E0,9.331924025E0
1.277165912E1,-8.701105957E0,-2.865640869E0,-1.594035187E0,9.298499376E0
1.278168512E1,-8.605903931E0,-2.581681366E0,-1.723216553E0,9.148559254E0
1.279171113E1,-8.480015717E0,-2.305206299E0,-2.049837341E0,9.023661993E0
1.280173713E1,-8.416847076E0,-2.175575867E0,-2.753673706E0,9.119164651E0
1.281176313E1,-8.315807190E0,-2.173180847E0,-3.297941895E0,9.206073265E0
1.282178912E1,-8.184230804E0,-2.254012756E0,-3.318000183E0,9.114347622E0
1.283181412E1,-8.072712708E0,-2.425705719E0,-2.991529083E0,8.944382871E0
1.284184013E1,-7.930358734E0,-2.606230316E0,-2.682870941E0,8.768170995E0
1.285186613E1,-7.873776398E0,-2.766247559E0,-2.478994904E0,8.705968990E0
1.286189212E1,-7.996820526E0,-3.004552002E0,-2.421364746E0,8.879159785E0
1.287191812E1,-8.169411621E0,-3.074606323E0,-2.507435760E0,9.081834857E0
1.288194413E1,-8.330177307E0,-3.054098969E0,-2.669398956E0,9.265261209E0
1.289197013E1,-8.454269257E0,-3.054398346E0,-2.787952423E0,9.411519358E0
1.290199613E1,-8.474776611E0,-3.124153290E0,-2.788401489E0,9.452901949E0
1.291202212E1,-8.527766418E0,-3.267255707E0,-2.822979584E0,9.558607308E0
1.292204812E1,-8.640482025E0,-3.380570068E0,-2.917133789E0,9.726039952E0
1.293207413E1,-8.867709503E0,-3.399580536E0,-2.894830170E0,9.928416861E0
1.294210013E1,-9.280101929E0,-3.545976105E0,-2.759661255E0,1.031067256E1
1.295212512E1,-9.484726410E0,-3.592229919E0,-2.442321167E0,1.043211788E1
1.296215112E1,-9.360784149E0,-3.650907898E0,-1.998643799E0,1.024441240E1
1.297217713E1,-9.001231842E0,-3.763773193E0,-1.654659119E0,9.895759704E0
1.298220313E1,-8.581654358E0,-3.835174713E0,-1.523831177E0,9.522364100E0
1.299222912E1,-8.389004974E0,-3.606001282E0,-1.641785889E0,9.277613411E0
1.300225512E1,-8.880882111E0,-3.174748077E0,-1.828747101E0,9.606945840E0
1.301228112E1,-9.483828278E0,-2.672093353E0,-2.070793762E0,1.006832998E1
1.302230713E1,-1.000025436E1,-2.545756073E0,-2.447859650E0,1.060556355E1
1.303233313E1,-1.013018417E1,-2.853815460E0,-2.863694916E0,1.090713723E1
1.304235912E1,-9.873318329E0,-3.408861237E0,-3.518433380E0,1.102189290E1
1.305238512E1,-9.780062256E0,-4.081412659E0,-4.471351776E0,1.150219691E1
1.306241013E1,-9.702224121E0,-4.571343842E0,-5.121150513E0,1.188513862E1
1.307243613E1,-9.720785522E0,-4.960833893E0,-5.747897186E0,1.233458010E1
1.308246212E1,-9.787846069E0,-5.225184174E0,-6.003715210E0,1.261543010E1
1.309248812E1,-1.042866348E1,-5.244793396E0,-5.672753448E0,1.297863673E1
1.310251413E1,-1.140373581E1,-4.949158173E0,-4.909640350E0,1.336577440E1
1.311254013E1,-1.228480362E1,-4.258045349E0,-3.702550507E0,1.351873627E1
1.312256613E1,-1.312949707E1,-3.726500702E0,-2.165546722E0,1.381883112E1
1.313259212E1,-1.400667297E1,-3.644920349E0,-5.757028198E-1,1.448460444E1
1.314261812E1,-1.487381973E1,-3.899690552E0,9.361532593E-1,1.540501486E1
1.315264413E1,-1.520313492E1,-4.400399323E0,1.965562592E0,1.594873857E1
1.316267013E1,-1.425410843E1,-4.729265442E0,2.242786102E0,1.518471759E1
1.317269612E1,-1.197300201E1,-4.562961273E0,2.031725006E0,1.297309906E1
1.318272112E1,-9.780062256E0,-4.481829987E0,1.441951447E0,1.085429140E1
1.319274713E1,-8.304430847E0,-4.540208588E0,7.473957825E-1,9.493980523E0
1.320277313E1,-6.991211700E0,-4.669090576E0,2.507286072E-1,8.410726050E0
1.321279913E1,-5.816454620E0,-4.885839844E0,-2.002835083E-1,7.598861021E0
1.322282512E1,-5.207071838E0,-5.241799622E0,-5.140310669E-1,7.406368094E0
1.323285112E1,-4.912185059E0,-5.737868042E0,-5.203179932E-1,7.571223318E0
1.324287713E1,-4.924758911E0,-6.314768372E0,-2.326162720E-1,8.011470542E0
1.325290313E1,-5.270689545E0,-6.852899323E0,4.002676392E-1,8.654629489E0
1.326292912E1,-5.816155243E0,-7.150330811E0,1.376537476E0,9.319321216E0
1.327295512E1,-6.654711456E0,-6.760691071E0,2.725981293E0,9.870314196E0
1.328298113E1,-7.546257477E0,-5.650150452E0,3.982169037E0,1.023366368E1
1.329300713E1,-7.736212463E0,-4.167184296E0,4.799170074E0,1.001231450E1
1.330303212E1,-7.789950714E0,-2.713706818E0,5.024002533E0,9.658578481E0
1.331305812E1,-8.001909943E0,-1.500330048E0,4.828808441E0,9.465671870E0
1.332308412E1,-8.302335205E0,-5.995033264E-1,4.353397064E0,9.393627632E0
1.333311013E1,-8.654852142E0,-2.619552612E-2,3.623215485E0,9.382688435E0
1.334313613E1,-8.830886078E0,1.218466187E-1,2.685864716E0,9.231103119E0
1.335316212E1,-8.934021606E0,-4.339476013E-1,1.588496704E0,9.084512885E0
1.336318812E1,-9.085506592E0,-1.577719116E0,4.954696655E-1,9.234777627E0
1.337321413E1,-9.121132507E0,-3.050955505E0,-3.671864319E-1,9.624874731E0
1.338324013E1,-9.034462738E0,-4.440964966E0,-1.119372253E0,1.012900198E1
1.339326613E1,-8.921447754E0,-5.669460297E0,-1.672322388E0,1.070194712E1
1.340329212E1,-8.575068054E0,-6.562203827E0,-2.032772827E0,1.098756008E1
1.341331838E1,-8.017028503E0,-6.952292633E0,-2.582429810E0,1.092135809E1
1.342334337E1,-7.480544128E0,-6.981481934E0,-3.980073395E0,1.097909899E1
1.343336937E1,-6.839277649E0,-6.761439514E0,-7.018754425E0,1.190612014E1
1.344339538E1,-6.023773499E0,-5.988746338E0,-7.240293732E0,1.116121782E1
1.345342138E1,-5.838009796E0,-4.786147156E0,-4.171375580E0,8.624960128E0
1.346344737E1,-6.345454559E0,-4.065096588E0,-1.757944336E0,7.738227971E0
1.347347337E1,-6.865772552E0,-3.727698212E0,-8.722361755E-1,7.861002649E0
1.348349938E1,-7.407945099E0,-3.557352448E0,-8.590635681E-1,8.262590226E0
1.349352538E1,-7.772287445E0,-3.429667969E0,-1.319356384E0,8.597195809E0
1.350355138E1,-7.843239899E0,-3.316203918E0,-1.886826324E0,8.722025803E0
1.351357737E1,-7.935298462E0,-3.180286560E0,-2.356699219E0,8.867762711E0
1.352360337E1,-8.081244965E0,-3.087180176E0,-2.582130432E0,9.027989764E0
1.353362838E1,-8.134384460E0,-2.983445892E0,-2.526446228E0,9.025081190E0
1.354365438E1,-7.958350525E0,-2.884501648E0,-2.437082062E0,8.808805924E0
1.355368037E1,-7.671397247E0,-2.839595032E0,-2.519410858E0,8.559267886E0
1.356370637E1,-7.447911987E0,-2.915337524E0,-2.748284912E0,8.457165944E0
1.357373238E1,-7.421866150E0,-3.185675354E0,-3.117417297E0,8.657419663E0
1.358375838E1,-7.521558838E0,-3.532953186E0,-3.554208984E0,9.038141793E0
1.359378437E1,-7.809260559E0,-3.816313934E0,-3.894002380E0,9.524287746E0
1.360381037E1,-8.218060455E0,-3.858825531E0,-3.994293823E0,9.918741617E0
1.361383637E1,-8.479866028E0,-3.855682068E0,-3.563339996E0,9.973555233E0
1.362386238E1,-8.609197083E0,-4.145479431E0,-2.676584015E0,9.923072917E0
1.363388838E1,-8.706644440E0,-4.663552094E0,-1.629810791E0,1.001052740E1
1.364391337E1,-9.021589508E0,-5.225633240E0,-9.545649719E-1,1.046936074E1
1.365393937E1,-9.451345825E0,-5.557493134E0,-7.331753540E-1,1.098868572E1
1.366396538E1,-9.533824310E0,-5.617967377E0,-8.222401428E-1,1.109646080E1
1.367399138E1,-8.876541138E0,-5.504653015E0,-8.839118958E-1,1.048215091E1
1.368401737E1,-8.496032410E0,-5.410199432E0,-1.010698242E0,1.012296081E1
1.369404337E1,-8.995244293E0,-5.075495453E0,-1.843865662E0,1.049165929E1
1.370406937E1,-9.496851196E0,-4.239034882E0,-3.743864594E0,1.105333079E1
1.371409538E1,-1.030247589E1,-3.172652435E0,-6.303541718E0,1.248764874E1
1.372412138E1,-1.152139114E1,-1.992506561E0,-7.696395264E0,1.399810831E1
1.373414737E1,-1.254975266E1,-1.053209839E0,-7.485633545E0,1.465060587E1
1.374417337E1,-1.279524216E1,-7.792794800E-1,-6.047723694E0,1.417393595E1
1.375419938E1,-1.255109985E1,-9.086105347E-1,-4.108506317E0,1.323765481E1
1.376422538E1,-1.231159790E1,-1.513652344E0,-2.857108612E0,1.272908700E1
1.377425037E1,-1.179621964E1,-2.578687592E0,-2.251018982E0,1.228281376E1
1.378427637E1,-1.135733231E1,-3.949836273E0,-1.704655151E0,1.214479530E1
1.379430238E1,-1.106184677E1,-5.376818848E0,-1.019529877E0,1.234155890E1
1.380432838E1,-1.074076447E1,-6.724915466E0,-1.459465027E-1,1.267319256E1
1.381435438E1,-1.027164001E1,-8.043523407E0,6.571334839E-1,1.306279763E1
1.382438037E1,-9.535021820E0,-8.924291840E0,1.205892334E0,1.311540324E1
1.383440637E1,-8.525820465E0,-9.171876984E0,1.578317871E0,1.262157000E1
1.384443238E1,-7.376660156E0,-8.662935333E0,1.557660828E0,1.148424446E1
1.385445838E1,-7.115902405E0,-6.866520996E0,1.147214355E0,9.954962501E0
1.386448437E1,-6.963070221E0,-4.940326538E0,8.746311951E-1,8.582316292E0
1.387451037E1,-7.052434387E0,-3.234174500E0,6.718029785E-1,7.787684811E0
1.388453538E1,-7.383246460E0,-1.631756744E0,7.188052368E-1,7.595501256E0
1.389456138E1,-7.755821686E0,-3.905378723E-1,1.006357269E0,7.830583938E0
1.390458738E1,-8.245004425E0,6.614744568E-1,1.746418304E0,8.453852573E0
1.391461337E1,-8.720266113E0,1.518592072E0,2.891986084E0,9.311967916E0
1.392463937E1,-9.360784149E0,1.677711182E0,4.227508850E0,1.040724871E1
1.393466538E1,-9.792636108E0,4.406835938E-1,4.664001160E0,1.085554378E1
1.394469138E1,-9.788145447E0,-1.744622040E0,3.816613312E0,1.064979035E1
1.395471737E1,-9.597142639E0,-3.704047394E0,2.503693542E0,1.058742628E1
1.396474337E1,-9.220226440E0,-5.089117126E0,1.142274628E0,1.059322803E1
1.397476938E1,-8.746910706E0,-5.964047699E0,9.190887451E-2,1.058710343E1
1.398479538E1,-8.281977539E0,-6.383475494E0,-8.026309204E-1,1.048733177E1
1.399482037E1,-7.936495972E0,-6.591093750E0,-1.335672455E0,1.040262015E1
1.400484637E1,-7.698490906E0,-6.584507446E0,-1.540446625E0,1.024673003E1
1.401487237E1,-7.811206512E0,-6.263724518E0,-1.643582153E0,1.014645526E1
1.402489838E1,-8.076005859E0,-5.444927216E0,-1.484762421E0,9.852594707E0
1.403492438E1,-8.133935394E0,-4.226461029E0,-1.112336884E0,9.233697589E0
1.404495037E1,-8.236921234E0,-3.212170258E0,-9.225315857E-1,8.889092963E0
1.405497637E1,-8.644074554E0,-2.413131866E0,-9.494755554E-1,9.024673631E0
1.406500238E1,-8.928932190E0,-1.927092590E0,-1.042132874E0,9.193778159E0
1.407502838E1,-9.264833679E0,-1.464704132E0,-1.060544586E0,9.439663983E0
1.408505437E1,-9.451645203E0,-1.063688049E0,-1.018332367E0,9.565669350E0
1.409508037E1,-9.321715393E0,-8.717871094E-1,-1.022673340E0,9.418081089E0
1.410510637E1,-8.926088104E0,-9.409432983E-1,-1.054257660E0,9.037249712E0
1.411513138E1,-8.567284241E0,-1.332828369E0,-1.225800934E0,8.756562034E0
1.412515738E1,-8.208779755E0,-1.885329437E0,-1.605261841E0,8.574112066E0
1.413518337E1,-7.887697449E0,-2.452050934E0,-2.069895630E0,8.515444366E0
1.414520937E1,-7.683222656E0,-2.958747253E0,-2.380050659E0,8.570340532E0
1.415523538E1,-7.564070435E0,-3.336411896E0,-2.430046692E0,8.616956122E0
1.416526138E1,-7.508086853E0,-3.533851318E0,-2.433489532E0,8.647620750E0
1.417528737E1,-7.608527985E0,-3.458557892E0,-2.555785217E0,8.739757369E0
1.418531337E1,-7.677684174E0,-3.064726868E0,-2.855911102E0,8.746177066E0
1.419533938E1,-7.802524567E0,-2.591261444E0,-3.107537842E0,8.789244389E0
1.420536538E1,-8.003706207E0,-2.329455872E0,-3.148253174E0,8.910509287E0
1.421539138E1,-8.175249481E0,-2.393971710E0,-2.870730286E0,8.989265654E0
1.422541637E1,-8.335416412E0,-2.767295380E0,-2.486030273E0,9.127838573E0
1.423544237E1,-8.423732758E0,-3.282374268E0,-2.298769684E0,9.328322275E0
1.424546838E1,-8.435408478E0,-3.760030975E0,-2.326162720E0,9.523916323E0
1.425549438E1,-8.580756226E0,-4.202660522E0,-2.407144318E0,9.853226712E0
1.426552037E1,-9.166188812E0,-4.431384888E0,-2.305805054E0,1.043900983E1
1.427554637E1,-9.701625366E0,-3.866309967E0,-1.895208893E0,1.061422179E1
1.428557238E1,-9.594747620E0,-2.922672272E0,-1.222358093E0,1.010422458E1
1.429559838E1,-9.436826019E0,-2.471360779E0,-4.996609497E-1,9.767853934E0
1.430562438E1,-9.307644653E0,-2.492317200E0,-1.812730408E-1,9.637258632E0
1.431565037E1,-9.269324341E0,-2.694696350E0,-5.381309509E-1,9.668058082E0
1.432567637E1,-9.551487579E0,-2.795885925E0,-1.443598022E0,1.005643418E1
1.433570238E1,-9.804760895E0,-2.903961182E0,-2.336790619E0,1.048937163E1
1.434572738E1,-9.886490936E0,-3.372935944E0,-2.998863831E0,1.086796136E1
1.435575337E1,-1.002465363E1,-4.064647522E0,-3.813619537E0,1.146990557E1
1.436577937E1,-1.019455032E1,-4.739593964E0,-5.144052887E0,1.236340921E1
1.437580538E1,-1.032702484E1,-5.195695496E0,-6.102958832E0,1.307244431E1
1.438583138E1,-1.049527496E1,-5.595663757E0,-5.962999878E0,1.330487193E1
1.439585737E1,-1.075184143E1,-5.873336334E0,-4.725074158E0,1.313105097E1
1.440588337E1,-1.121288269E1,-5.727539520E0,-3.339255981E0,1.302628411E1
1.441590954E1,-1.157468033E1,-5.147645416E0,-2.256707153E0,1.286717549E1
1.442593554E1,-1.219858292E1,-4.169729004E0,-1.437311096E0,1.297142738E1
1.443596154E1,-1.304118073E1,-3.350033569E0,-5.956114197E-1,1.347775473E1
1.444598754E1,-1.392584106E1,-2.918780365E0,7.002438354E-1,1.424565441E1
1.445601354E1,-1.428090271E1,-2.970273285E0,1.877395935E0,1.470684606E1
1.446603854E1,-1.406969193E1,-3.099754028E0,2.314337311E0,1.459180808E1
1.447606454E1,-1.301288956E1,-3.115022278E0,2.004930725E0,1.352990782E1
1.448609054E1,-1.083342178E1,-3.153043213E0,1.129700775E0,1.133935328E1
1.449611654E1,-8.694968719E0,-3.294648743E0,2.439926147E-1,9.301436651E0
1.450614254E1,-7.191046143E0,-3.570674744E0,-3.498225403E-1,8.036369738E0
1.451616854E1,-6.113886108E0,-4.054618378E0,-7.240443420E-1,7.371822959E0
1.452619454E1,-5.597310333E0,-4.820126495E0,-8.623567200E-1,7.436878479E0
1.453622054E1,-5.539081421E0,-5.701643372E0,-7.424560547E-1,7.983821210E0
1.454624654E1,-5.434748383E0,-6.518644409E0,-4.349954224E-1,8.498143087E0
1.455627254E1,-5.582640839E0,-7.105723572E0,9.250762939E-2,9.036910084E0
1.456629854E1,-6.294710083E0,-7.370073853E0,9.692344666E-1,9.740676520E0
1.457632354E1,-7.517816620E0,-6.935976563E0,2.113305359E0,1.044468272E1
1.458634954E1,-8.128995667E0,-5.782175903E0,2.898871765E0,1.038833895E1
1.459637554E1,-8.133186951E0,-4.351750488E0,3.137924652E0,9.743358426E0
1.460640154E1,-8.265062714E0,-3.107986908E0,3.347788239E0,9.443438482E0
1.461642754E1,-8.481811981E0,-2.271376648E0,3.707789612E0,9.531421204E0
1.462645354E1,-8.791218567E0,-1.886227570E0,3.711831207E0,9.727336185E0
1.463647954E1,-9.195827179E0,-2.014211426E0,3.147953796E0,9.926222760E0
1.464650554E1,-9.803413696E0,-2.537523193E0,1.736688538E0,1.027433848E1
1.465653154E1,-1.019215530E1,-3.255280609E0,2.830613708E-1,1.070313063E1
1.466655754E1,-1.012599289E1,-3.727249146E0,-5.285508728E-1,1.080312382E1
1.467658354E1,-9.961035919E0,-3.847748566E0,-8.277786255E-1,1.071039789E1
1.468660854E1,-9.568252716E0,-3.719764709E0,-7.352709961E-1,1.029216853E1
1.469663454E1,-8.939111023E0,-3.510948944E0,-5.980064392E-1,9.622477855E0
1.470666054E1,-8.410709839E0,-3.315455475E0,-5.601351929E-1,9.057926718E0
1.471668654E1,-8.020171967E0,-3.224295044E0,-7.545808411E-1,8.676902048E0
1.472671254E1,-7.679330750E0,-3.259471893E0,-1.124311981E0,8.417859301E0
1.473673854E1,-7.396119690E0,-3.422931976E0,-1.617985382E0,8.308846278E0
1.474676454E1,-7.188351746E0,-3.761228485E0,-2.215692444E0,8.410025775E0
1.475679054E1,-7.084168396E0,-4.192032623E0,-2.867586823E0,8.716744436E0
1.476681654E1,-7.187453613E0,-4.608167267E0,-3.086132355E0,9.078485992E0
1.477684254E1,-7.450157318E0,-4.794529724E0,-2.559826813E0,9.221988541E0
1.478686854E1,-7.446265411E0,-4.727319489E0,-1.935475159E0,9.029976867E0
1.479689454E1,-7.366780701E0,-4.448599091E0,-1.709445190E0,8.773921280E0
1.480691954E1,-7.438182220E0,-4.137545929E0,-1.739981689E0,8.687541501E0
1.481694554E1,-7.689659271E0,-3.842060394E0,-1.701362000E0,8.762814641E0
1.482697154E1,-7.826175385E0,-3.580404510E0,-1.619931335E0,8.757425143E0
1.483699754E1,-7.893834686E0,-3.393742676E0,-1.583556976E0,8.737148740E0
1.484702354E1,-8.048163757E0,-3.265459442E0,-1.681004333E0,8.846577915E0
1.485704954E1,-8.131390686E0,-3.159330139E0,-1.862427063E0,8.920174661E0
1.486707554E1,-8.031997375E0,-3.007545776E0,-2.181264038E0,8.849645543E0
1.487710154E1,-7.983498230E0,-2.872975616E0,-2.577190704E0,8.867476801E0
1.488712754E1,-8.088280334E0,-2.786605225E0,-2.901266785E0,9.033426615E0
1.489715354E1,-8.367000732E0,-2.711461487E0,-3.314856720E0,9.399308471E0
1.490717954E1,-8.718170471E0,-2.601889343E0,-3.661086731E0,9.807134167E0
1.491720454E1,-8.954528961E0,-2.507735138E0,-3.810176697E0,1.004936669E1
1.492723054E1,-8.993448029E0,-2.797083435E0,-3.678151245E0,1.011111170E1
1.493725654E1,-8.771459656E0,-3.618126068E0,-3.009342041E0,9.954168989E0
1.494728254E1,-8.551267548E0,-4.863985291E0,-1.984273682E0,1.003592904E1
1.495730854E1,-8.595725098E0,-6.050418091E0,-1.154549103E0,1.057483015E1
1.496733454E1,-9.046288147E0,-6.856192474E0,-7.358697510E-1,1.137471796E1
1.497736054E1,-9.516909485E0,-6.843169556E0,-1.073567505E0,1.177085736E1
1.498738654E1,-9.406738586E0,-5.678291931E0,-2.037562866E0,1.117503434E1
1.499741254E1,-9.427395630E0,-4.646188202E0,-2.994672546E0,1.092844531E1
1.500743854E1,-9.953551483E0,-4.274511108E0,-3.793561249E0,1.147761906E1
1.501746454E1,-1.031370255E1,-3.964056702E0,-4.563410339E0,1.195453553E1
1.502748954E1,-1.041923309E1,-3.453767853E0,-5.113965454E0,1.210956536E1
1.503751554E1,-1.032103729E1,-2.846331024E0,-5.242398376E0,1.192091237E1
1.504754154E1,-1.016536102E1,-2.381098480E0,-4.896767120E0,1.153180484E1
1.505756754E1,-1.032253418E1,-2.135908356E0,-4.223167877E0,1.135570180E1
1.506759354E1,-1.085976700E1,-2.227966919E0,-3.614982605E0,1.166046633E1
1.507761954E1,-1.109088638E1,-2.496059418E0,-3.284619598E0,1.183329199E1
1.508764554E1,-1.092622879E1,-2.864593048E0,-3.047812042E0,1.169946696E1
1.509767154E1,-1.091081085E1,-3.417692871E0,-2.551593933E0,1.171482179E1
1.510769754E1,-1.099373840E1,-4.076173553E0,-1.694476318E0,1.184688672E1
1.511772354E1,-1.081156723E1,-4.937033386E0,-5.303471375E-1,1.189729182E1
1.512774954E1,-1.025726990E1,-6.016289062E0,5.411247253E-1,1.190378662E1
1.513777454E1,-9.703571320E0,-6.935527496E0,1.076860657E0,1.197582844E1
1.514780054E1,-9.183103638E0,-7.379055176E0,1.094972992E0,1.183126424E1
1.515782654E1,-8.533753967E0,-6.539451141E0,6.541397095E-1,1.077113164E1
1.516785254E1,-7.534881134E0,-5.022206268E0,-2.170486450E-2,9.055244923E0
1.517787854E1,-6.811734924E0,-3.871549072E0,-4.489164734E-1,7.847939277E0
1.518790454E1,-6.696324921E0,-2.901715851E0,-3.646417236E-1,7.307098323E0
1.519793054E1,-6.901398468E0,-2.163151703E0,1.472937012E-1,7.233963059E0
1.520795654E1,-7.556436310E0,-1.566492462E0,8.812174988E-1,7.767250004E0
1.521798254E1,-8.224048004E0,-1.009650421E0,1.643881531E0,8.447289863E0
1.522800854E1,-8.768765259E0,-4.318519592E-1,2.341281281E0,9.086216942E0
1.523803454E1,-9.078022156E0,-6.032455444E-2,2.957549744E0,9.547838803E0
1.524806054E1,-9.035510559E0,-2.263293457E-1,3.275338898E0,9.613507213E0
1.525808554E1,-9.020841064E0,-1.201551361E0,3.180885315E0,9.640400955E0
1.526811154E1,-9.519154816E0,-2.726130981E0,2.650837555E0,1.025051405E1
1.527813754E1,-9.912237396E0,-4.053720245E0,1.792073364E0,1.085802123E1
1.528816354E1,-1.003034180E1,-4.845124512E0,8.430468750E-1,1.117111078E1
1.529818954E1,-9.938881989E0,-5.139861603E0,2.227368164E-1,1.119147730E1
1.530821554E1,-9.661059723E0,-5.092110901E0,-1.754351807E-1,1.092229124E1
1.531824154E1,-9.368268585E0,-5.094206543E0,-3.242257690E-1,1.066866997E1
1.532826754E1,-9.190288696E0,-5.146597595E0,-3.936813354E-1,1.054058149E1
1.533829354E1,-9.106762390E0,-5.197192383E0,-3.941304016E-1,1.049281986E1
1.534831954E1,-9.177565155E0,-5.118456116E0,-3.990701294E-1,1.051596653E1
1.535834554E1,-9.277407532E0,-4.775668945E0,-5.432203674E-1,1.044855936E1
1.536837054E1,-9.306596832E0,-4.152664490E0,-7.069798279E-1,1.021553657E1
1.537839654E1,-9.237141266E0,-3.447331238E0,-8.298742676E-1,9.894319720E0
1.538842254E1,-9.122479706E0,-2.809208221E0,-8.577163696E-1,9.583682183E0
1.539844854E1,-9.042845306E0,-2.306852875E0,-8.196954346E-1,9.368378837E0
1.540847454E1,-9.004225616E0,-1.891915741E0,-7.885601807E-1,9.234568278E0
1.541850050E1,-8.973389740E0,-1.526974640E0,-8.379574585E-1,9.140872370E0
1.542852650E1,-8.909322968E0,-1.268312531E0,-9.282197571E-1,9.046891418E0
1.543855250E1,-8.767268372E0,-1.098266144E0,-1.093027039E0,8.903139409E0
1.544857850E1,-8.430618439E0,-1.171314240E0,-1.357377319E0,8.619151785E0
1.545860450E1,-8.121810608E0,-1.413211212E0,-1.813029785E0,8.440856028E0
1.546863050E1,-7.952961731E0,-1.894610138E0,-2.348616028E0,8.506182758E0
1.547865650E1,-8.100405121E0,-2.471510468E0,-2.636617126E0,8.869987429E0
1.548868150E1,-8.284971313E0,-3.005150757E0,-2.532284088E0,9.169740642E0
1.549870750E1,-8.360264740E0,-3.297792206E0,-2.218985596E0,9.257070651E0
1.550873350E1,-8.381819916E0,-3.249143372E0,-2.129920807E0,9.238419800E0
1.551875950E1,-8.332572327E0,-2.997217255E0,-2.444865875E0,9.186535909E0
1.552878550E1,-8.360564117E0,-2.852617950E0,-2.905607758E0,9.299409550E0
1.553881150E1,-8.518785095E0,-2.930755463E0,-2.952460327E0,9.480297942E0
1.554883750E1,-8.667725372E0,-3.126697998E0,-2.664758606E0,9.592009275E0
1.555886350E1,-8.756490784E0,-3.323688354E0,-2.293829956E0,9.642856993E0
1.556888950E1,-8.837023315E0,-3.536994781E0,-2.094294891E0,9.746249753E0
1.557891550E1,-8.895551605E0,-3.725303192E0,-2.088906097E0,9.867737883E0
1.558894150E1,-9.009614410E0,-3.767216034E0,-2.172133026E0,1.000416065E1
1.559896650E1,-9.343120880E0,-3.618126068E0,-2.247875519E0,1.026828556E1
1.560899250E1,-9.792486420E0,-3.173700256E0,-2.160756683E0,1.051827139E1
1.561901850E1,-1.009216324E1,-2.552941132E0,-1.829196167E0,1.056954237E1
1.562904450E1,-1.000624191E1,-1.924398193E0,-1.303639069E0,1.027266569E1
1.563907050E1,-9.701325989E0,-1.705702972E0,-8.879534912E-1,9.890076338E0
1.564909650E1,-9.233997803E0,-1.975891113E0,-7.719447327E-1,9.474532167E0
1.565912250E1,-8.871751099E0,-2.583926697E0,-1.055455170E0,9.300463986E0
1.566914850E1,-8.737630005E0,-3.146007843E0,-1.426982574E0,9.395734283E0
1.567917450E1,-8.859476624E0,-3.456462250E0,-1.784738617E0,9.675884934E0
1.568920050E1,-9.139544220E0,-3.611689453E0,-2.042352905E0,1.003726928E1
1.569922650E1,-9.256600800E0,-3.627855835E0,-1.996099091E0,1.014053292E1
1.570925150E1,-9.228159943E0,-3.696263580E0,-1.785636749E0,1.009999005E1
1.571927750E1,-9.172924805E0,-3.877985687E0,-1.681752777E0,1.009998093E1
1.572930350E1,-9.065747681E0,-4.084107056E0,-1.785786438E0,1.010231383E1
1.573932950E1,-8.873547363E0,-4.182153168E0,-2.060465240E0,1.002376002E1
1.574935550E1,-8.762478333E0,-4.201163635E0,-2.400108948E0,1.000956170E1
1.575938150E1,-8.839268646E0,-4.063899078E0,-2.841091919E0,1.013507520E1
1.576940750E1,-9.037606201E0,-3.697161713E0,-3.348087616E0,1.032264604E1
1.577943350E1,-9.464368744E0,-3.310216370E0,-3.686833191E0,1.068290911E1
1.578945950E1,-1.008123596E1,-2.882855072E0,-3.667822723E0,1.110833450E1
1.579948550E1,-1.078342575E1,-2.459385681E0,-3.209475861E0,1.151657867E1
1.580951150E1,-1.130928223E1,-2.119442596E0,-2.388882294E0,1.175153862E1
1.581953650E1,-1.168125870E1,-2.139949951E0,-1.464105377E0,1.196556706E1
1.582956250E1,-1.195848221E1,-2.719844055E0,-6.941065979E-1,1.228351059E1
1.583958850E1,-1.212224167E1,-3.683839417E0,-2.296224976E-1,1.267170637E1
1.584961450E1,-1.217642899E1,-4.686155090E0,-1.002914429E-1,1.304743388E1
1.585964050E1,-1.226190125E1,-5.335504761E0,-1.868115234E-1,1.337373290E1
1.586966650E1,-1.201566330E1,-5.251379700E0,-2.149530029E-1,1.311485258E1
1.587969250E1,-1.121348145E1,-4.718487854E0,-2.014810181E-1,1.216745201E1
1.588971850E1,-1.024319916E1,-4.280049591E0,-3.362008667E-1,1.110652891E1
1.589974450E1,-9.140292664E0,-3.977229309E0,-5.119354248E-1,9.981251466E0
1.590977050E1,-8.161029053E0,-3.762875061E0,-6.361770630E-1,9.009236659E0
1.591979650E1,-7.382048950E0,-3.613934784E0,-6.643185425E-1,8.245998451E0
1.592982250E1,-6.745871887E0,-3.683090973E0,-6.264472961E-1,7.711315248E0
1.593984750E1,-6.610403595E0,-3.843108215E0,-4.327500916E-1,7.658602293E0
1.594987350E1,-6.387816467E0,-4.000131683E0,-4.715194702E-2,7.537073438E0
1.595989950E1,-6.090085602E0,-4.062551880E0,5.536985779E-1,7.341665515E0
1.596992550E1,-6.076014862E0,-4.001029816E0,1.325194244E0,7.394750569E0
1.597995150E1,-6.474635925E0,-3.784430237E0,2.098785553E0,7.787664822E0
1.598997750E1,-7.285799103E0,-3.272045746E0,2.708018646E0,8.433416681E0
1.600000350E1,-8.152796173E0,-2.581681366E0,2.859353943E0,9.017154157E0
1.601002950E1,-8.985813904E0,-2.051034851E0,2.749033356E0,9.618148463E0
1.602005550E1,-9.862391052E0,-1.866318970E0,2.383643188E0,1.031657204E1
1.603008150E1,-1.060065582E1,-2.048041077E0,1.450334015E0,1.089366077E1
1.604010750E1,-1.095736404E1,-2.581082611E0,4.504133606E-1,1.126626320E1
1.605013250E1,-1.110016708E1,-3.326083374E0,-3.974235535E-1,1.159458862E1
1.606015850E1,-1.097293167E1,-4.106560364E0,-1.121168518E0,1.176971055E1
1.607018450E1,-1.061188248E1,-4.679568787E0,-1.732197876E0,1.172650516E1
1.608021050E1,-1.005953110E1,-4.965324554E0,-2.451901245E0,1.148304984E1
1.609023650E1,-9.580826569E0,-5.007985840E0,-3.919599152E0,1.149936596E1
1.610026250E1,-8.981472931E0,-4.727469177E0,-4.897964630E0,1.126968848E1
1.611028850E1,-8.610693970E0,-4.291875000E0,-3.803291016E0,1.034549487E1
1.612031450E1,-8.674910431E0,-3.924389191E0,-1.838027802E0,9.697074183E0
1.613034050E1,-8.696016541E0,-3.546425171E0,-5.706134033E-1,9.408689325E0
1.614036650E1,-8.599317627E0,-3.223845978E0,-1.778302002E-1,9.185481485E0
1.615039250E1,-8.403225403E0,-3.061284027E0,-3.031196594E-1,8.948605399E0
1.616041750E1,-8.208779755E0,-3.026256866E0,-5.617817688E-1,8.766863432E0
1.617044350E1,-8.104746094E0,-3.082689514E0,-7.385641479E-1,8.702606557E0
1.618046950E1,-8.143665161E0,-3.192411346E0,-7.679031372E-1,8.780686060E0
1.619049550E1,-8.284821625E0,-3.335663452E0,-6.794371033E-1,8.956927754E0
1.620052150E1,-8.451275482E0,-3.538192291E0,-4.986131287E-1,9.175591372E0
1.621054750E1,-8.743018799E0,-3.668571167E0,-2.829116821E-1,9.485717218E0
1.622057350E1,-9.000633087E0,-3.616629181E0,-1.001417542E-1,9.700589208E0
1.623059950E1,-9.151369629E0,-3.421285400E0,-2.993774414E-2,9.770038697E0
1.624062550E1,-9.294172668E0,-3.259471893E0,-6.885681152E-2,9.849393071E0
1.625065150E1,-9.358987885E0,-3.178789673E0,-1.689985657E-1,9.885540882E0
1.626067750E1,-9.400751038E0,-3.189567261E0,-2.522254944E-1,9.930311026E0
1.627070250E1,-9.364975433E0,-3.245401154E0,-3.585044861E-1,9.917858588E0
1.628072850E1,-9.243577881E0,-3.263962555E0,-5.116360474E-1,9.816259728E0
1.629075450E1,-9.292226715E0,-3.177292786E0,-6.533912659E-1,9.842133250E0
1.630078050E1,-9.271869049E0,-2.967728577E0,-8.607101440E-1,9.773218023E0
1.631080650E1,-9.333391113E0,-2.798131256E0,-1.081051941E0,9.803591255E0
1.632083250E1,-9.524094543E0,-2.745590515E0,-1.188079376E0,9.982894207E0
1.633085850E1,-9.626631317E0,-2.706072693E0,-1.139879608E0,1.006450125E1
1.634088450E1,-9.561816101E0,-2.715054016E0,-1.077908478E0,9.998086424E0
1.635091050E1,-9.581724701E0,-2.762804718E0,-1.015937347E0,1.002370525E1
1.636093650E1,-9.657018127E0,-3.015628967E0,-9.651928711E-1,1.016285464E1
1.637096250E1,-9.509574738E0,-3.253035278E0,-8.936416626E-1,1.009023516E1
1.638098750E1,-9.429341583E0,-3.350782013E0,-8.014334106E-1,1.003904967E1
1.639101350E1,-9.369466095E0,-3.414549408E0,-6.890171814E-1,9.996038577E0
1.640103950E1,-9.301058350E0,-3.412004700E0,-4.629872131E-1,9.917954409E0
1.641106537E1,-9.238189087E0,-3.281775513E0,-4.448748779E-1,9.813872925E0
1.642109138E1,-9.226663055E0,-3.113675079E0,-3.221301270E-1,9.743205399E0
1.643111738E1,-9.313931580E0,-2.935395813E0,-6.900650024E-2,9.765788854E0
1.644114338E1,-9.472751312E0,-2.797532501E0,2.266287231E-1,9.879805975E0
