"Time (s)","Acceleration x (m/s^2)","Acceleration y (m/s^2)","Acceleration z (m/s^2)","Absolute acceleration (m/s^2)"
-1.572208363E-3,-3.651806030E0,-8.677305450E0,-1.707199860E0,9.567959475E0
8.453791728E-3,-3.975582733E0,-7.629035339E0,-1.250349884E0,8.693147480E0
1.847979170E-2,-4.317920837E0,-6.978039093E0,-1.181792450E0,8.290603316E0
2.850579168E-2,-4.978796539E0,-7.273674316E0,-2.097737732E0,9.060643279E0
3.853179165E-2,-5.120551758E0,-8.408314819E0,-2.318378906E0,1.011408370E1
4.855779174E-2,-5.062472534E0,-9.161997528E0,-2.596949615E0,1.078494201E1
5.858379172E-2,-4.922214203E0,-9.396110687E0,-1.954934692E0,1.078595653E1
6.860879168E-2,-3.952680359E0,-9.512418823E0,-5.878276062E-1,1.031771948E1
7.863479166E-2,-2.258802795E0,-1.016296600E1,9.958790588E-1,1.045848188E1
8.866079163E-2,-1.532662811E0,-1.036145325E1,-5.891748047E-1,1.049075286E1
9.868679172E-2,-8.294252014E-1,-9.755064240E0,-1.806892548E0,9.955605715E0
1.087127917E-1,4.438270569E-1,-9.938732300E0,-1.287173309E0,1.003156006E1
1.187387917E-1,1.704056396E0,-9.534872131E0,-9.692344666E-1,9.734321251E0
1.287647916E-1,1.767674103E0,-6.413712616E0,3.817062378E-2,6.652957106E0
1.387907917E-1,1.659748535E0,-5.134622498E0,7.964936829E-1,5.454678320E0
1.488167917E-1,1.541344757E0,-5.351970520E0,6.503974915E-1,5.607347769E0
1.588427917E-1,1.276844788E0,-5.404810638E0,1.052012329E0,5.652348237E0
1.688687917E-1,6.010002136E-1,-5.561235352E0,1.611399078E0,5.821094990E0
1.788947916E-1,-2.182461548E-1,-5.932613068E0,1.797013092E0,6.202643408E0
1.889207917E-1,-1.087488556E0,-6.541546783E0,1.526675262E0,6.804792652E0
1.989467917E-1,-1.584904175E0,-6.570736084E0,1.357527008E0,6.894155025E0
2.089727917E-1,-6.038442993E-1,-5.715564423E0,-5.689518585E0,8.087207574E0
2.189977916E-1,1.563199310E0,-5.321434021E0,-1.462997681E1,1.564600503E1
2.290237917E-1,7.547305298E-1,-5.719456329E0,3.415896606E-1,5.779142010E0
2.390497917E-1,-2.095043335E0,-6.112688599E0,4.302802277E0,7.763264514E0
2.490757917E-1,-3.386258240E0,-8.097561035E0,3.608995056E0,9.490104578E0
2.591017917E-1,-3.682791595E0,-9.774823151E0,3.853436737E0,1.113369194E1
2.691277916E-1,-3.458857269E0,-1.072684341E1,3.194357300E0,1.171463964E1
2.791537917E-1,-3.257376251E0,-1.171014862E1,2.969674530E0,1.251227588E1
2.891797917E-1,-3.208877106E0,-1.321377182E1,2.615511017E0,1.384707752E1
2.992057917E-1,-3.013982391E0,-1.490181152E1,1.395248566E0,1.526744232E1
3.092317916E-1,-2.324965210E0,-1.660362259E1,-8.355624390E-1,1.678642043E1
3.192577917E-1,-2.170486450E0,-1.987087830E1,-3.913461914E0,2.036855419E1
3.292837917E-1,-1.834435272E0,-2.238969040E1,-4.506678314E0,2.291230103E1
3.393097917E-1,-1.479673004E0,-2.277019913E1,-3.455264740E0,2.307835035E1
3.493357917E-1,-8.481362915E-1,-2.090642487E1,-2.303859100E0,2.105007607E1
3.593617916E-1,3.832031250E-2,-1.784573959E1,-7.182064819E-1,1.786022706E1
3.693877917E-1,1.315015411E0,-1.443463303E1,-2.803669739E-1,1.449712046E1
3.794127917E-1,5.837560730E0,-1.052491333E1,-5.079836426E0,1.306352380E1
3.894387917E-1,4.107907562E0,-6.082900543E0,-3.854185181E0,8.290435873E0
3.994647916E-1,2.021845551E0,-3.815415802E0,-6.256988525E-2,4.318468729E0
4.094907917E-1,-2.525248718E-1,-4.815935211E0,1.482816467E0,5.045368712E0
4.195167917E-1,-3.894601135E0,-7.398963776E0,2.536625061E0,8.737679878E0
4.295427917E-1,-6.310577087E0,-9.086255035E0,3.056793365E0,1.147725574E1
4.395687917E-1,-7.283404083E0,-9.963580627E0,3.160527649E0,1.274008826E1
4.495947916E-1,-7.642357635E0,-1.048359924E1,3.114722900E0,1.334215058E1
4.596207917E-1,-7.477101288E0,-1.049033524E1,2.879561920E0,1.320022931E1
4.696467917E-1,-6.454128571E0,-9.617649994E0,2.084565125E0,1.176861839E1
4.796727917E-1,-5.306016083E0,-8.393645325E0,1.246757355E0,1.000807136E1
4.896987916E-1,-4.974904633E0,-7.397167511E0,4.555027771E-1,8.926099152E0
4.997247917E-1,-5.103936310E0,-6.892267456E0,3.177891541E-1,8.582220370E0
5.097507917E-1,-4.871918793E0,-7.350764008E0,1.294208679E0,8.913153220E0
5.197767917E-1,-4.179758148E0,-7.481292572E0,1.427731018E0,8.687838200E0
5.298027917E-1,-3.795058136E0,-7.455845490E0,1.366358643E0,8.476970813E0
5.398277917E-1,-3.631148987E0,-7.550448761E0,1.273102570E0,8.474391401E0
5.498537917E-1,-2.946622467E0,-7.246281281E0,-7.370672607E-1,7.857126988E0
5.598797917E-1,-3.180436249E0,-7.169640656E0,-4.984933777E0,9.293464726E0
5.699057917E-1,-3.953877869E0,-7.215295715E0,-7.040608978E0,1.082884192E1
5.799317916E-1,-3.408861237E0,-6.980434113E0,-3.000061340E0,8.327494424E0
5.899577917E-1,-2.891836395E0,-6.718179474E0,4.135899353E-1,7.325824856E0
5.999837917E-1,-2.949466553E0,-6.731950836E0,8.879534912E-1,7.403173401E0
6.100097917E-1,-3.259022827E0,-7.158114624E0,7.958949280E-1,7.905269350E0
6.200357917E-1,-3.728296967E0,-7.760012970E0,9.446855164E-1,8.660856210E0
6.300617916E-1,-4.107159119E0,-8.245154114E0,1.356928253E0,9.310884849E0
6.400877917E-1,-4.465663605E0,-8.695866852E0,1.857637024E0,9.950430496E0
6.501137083E-1,-4.767585754E0,-9.059011688E0,2.429148560E0,1.052123231E1
6.601397083E-1,-5.054988098E0,-9.532028046E0,2.790197754E0,1.114440069E1
6.701657084E-1,-5.212460632E0,-1.002585114E1,3.038830719E0,1.170136441E1
6.801917084E-1,-5.314398651E0,-1.051114197E1,3.111729126E0,1.218235596E1
6.902167083E-1,-4.902904358E0,-1.077773758E1,2.620001678E0,1.212693314E1
7.002427083E-1,-4.128265228E0,-1.064451462E1,1.696122894E0,1.154231771E1
7.102687083E-1,-3.787274323E0,-1.028750702E1,8.544232178E-1,1.099573947E1
7.202947084E-1,-4.143383789E0,-9.980046387E0,-5.682183838E-1,1.082089771E1
7.303207084E-1,-4.390070801E0,-9.525292053E0,-1.454525299E0,1.058865214E1
7.403467083E-1,-4.279001770E0,-8.944499817E0,-5.418731689E-2,9.915486341E0
7.503727083E-1,-4.293222198E0,-8.792116699E0,5.468128967E-1,9.799595769E0
7.603987084E-1,-4.579277344E0,-8.814570007E0,4.372407532E-1,9.942716172E0
7.704247084E-1,-5.087171173E0,-8.814570007E0,2.917433167E-1,1.018140801E1
7.804507083E-1,-5.419031067E0,-8.713380432E0,-1.785786438E-1,1.026259161E1
7.904767083E-1,-5.390889587E0,-8.586145020E0,-1.013991394E0,1.018880540E1
8.005027083E-1,-5.132377167E0,-8.608748016E0,-1.630409546E0,1.015431303E1
8.105287084E-1,-5.027744751E0,-8.702004089E0,-1.323248291E0,1.013676864E1
8.205547084E-1,-5.140011292E0,-8.720864868E0,-3.210823059E-1,1.012799556E1
8.305807083E-1,-5.431754608E0,-8.652157745E0,6.824308777E-1,1.023862802E1
8.406067083E-1,-5.676495667E0,-8.455766144E0,1.241667938E0,1.025984032E1
8.506317084E-1,-5.833968201E0,-8.130642242E0,1.374741211E0,1.010111091E1
8.606577084E-1,-6.034551086E0,-7.835605774E0,1.203197937E0,9.962941831E0
8.706837083E-1,-6.331982574E0,-7.655230865E0,7.158114624E-1,9.960368918E0
8.807097083E-1,-6.664740601E0,-7.524552612E0,-1.362167358E-2,1.005175830E1
8.907357083E-1,-6.980134735E0,-7.386090546E0,-8.547225952E-1,1.019839032E1
9.007617084E-1,-7.248227234E0,-7.223229218E0,-1.628014526E0,1.036157660E1
9.107877084E-1,-7.357350311E0,-7.074588318E0,-2.085912323E0,1.041784208E1
9.208137083E-1,-7.259453888E0,-7.008874969E0,-2.136656799E0,1.031451896E1
9.308397083E-1,-6.898853760E0,-6.954238586E0,-1.964365082E0,9.990713072E0
9.408657084E-1,-6.423741760E0,-6.816974030E0,-1.950593719E0,9.567675213E0
9.508917084E-1,-6.236331482E0,-6.543193359E0,-2.483934631E0,9.374174147E0
9.609177083E-1,-6.340365143E0,-6.264023895E0,-3.427871704E0,9.549268554E0
9.709437083E-1,-6.437962189E0,-6.149512024E0,-3.653003540E0,9.623320120E0
9.809697083E-1,-5.800437927E0,-6.572682037E0,-1.904489594E0,8.970635982E0
9.909957084E-1,-4.210893402E0,-7.428452454E0,2.218835907E0,8.822514487E0
1.001020708E0,-2.539169769E0,-7.846682739E0,6.043682098E0,1.022467146E1
1.011046708E0,-1.910926208E0,-7.640261993E0,6.884783020E0,1.046066344E1
1.021072708E0,-2.109413452E0,-7.001390533E0,4.455784149E0,8.562891270E0
1.031098708E0,-2.875969391E0,-6.096372528E0,6.429130554E-1,6.771284600E0
1.041124708E0,-3.613186340E0,-5.331463165E0,-2.421514435E0,6.880650200E0
1.051150708E0,-3.514541473E0,-5.231022034E0,-2.017953644E0,6.617229798E0
1.061176708E0,-2.943179626E0,-5.513634338E0,1.936972046E-1,6.252998364E0
1.071202708E0,-2.575394440E0,-6.051765289E0,2.289638672E0,6.964119821E0
1.081228708E0,-2.457739105E0,-6.527476044E0,3.936813354E0,8.009177511E0
1.091254708E0,-2.883902893E0,-6.596332855E0,3.829037476E0,8.154141955E0
1.101280708E0,-4.144730988E0,-6.378386078E0,1.727557526E0,7.800452482E0
1.111306708E0,-5.472170563E0,-6.032455444E0,-5.379812622E-1,8.162388939E0
1.121332708E0,-5.709876251E0,-5.835165710E0,-3.748205566E-1,8.172657837E0
1.131358708E0,-5.102738800E0,-5.757926331E0,1.855840759E0,7.914278477E0
1.141384708E0,-4.149670715E0,-5.732479248E0,4.801565094E0,8.551965431E0
1.151410708E0,-4.010460205E0,-5.616021423E0,4.842130737E0,8.430285746E0
1.161435708E0,-5.788911896E0,-5.757177887E0,2.927911377E-1,8.169597592E0
1.171461708E0,-7.589367828E0,-6.144572296E0,-2.747985535E0,1.014424454E1
1.181487708E0,-7.240144043E0,-6.142326965E0,-1.354682922E-1,9.495589396E0
1.191513708E0,-7.751929779E0,-6.184838562E0,3.215313721E-1,9.922097851E0
1.201539708E0,-9.145531769E0,-6.082750854E0,-2.381397858E0,1.123884625E1
1.211565708E0,-1.143307480E1,-6.400839386E0,-7.137008514E0,1.492055075E1
1.221591708E0,-1.112366821E1,-7.134463806E0,-4.010160828E0,1.381006728E1
1.231617708E0,-9.611363068E0,-7.605384521E0,1.086740112E-1,1.225691575E1
1.241643708E0,-9.662107544E0,-8.440647583E0,-8.876541138E-2,1.282999350E1
1.251669708E0,-1.130419281E1,-9.511520691E0,-2.154619446E0,1.492970817E1
1.261695708E0,-1.221310272E1,-1.021311172E1,-3.252885590E0,1.624957827E1
1.271721708E0,-1.128158981E1,-1.050964508E1,-3.340752869E0,1.577616995E1
1.281747708E0,-9.204209747E0,-1.084614532E1,-1.984423370E0,1.436294822E1
1.291773708E0,-7.595056000E0,-1.173005722E1,-3.202290802E0,1.433644951E1
1.301799708E0,-6.695277100E0,-1.266830612E1,-4.403243408E0,1.499003896E1
1.311825708E0,-5.976322174E0,-1.308009979E1,-3.193159790E0,1.473097779E1
1.321850708E0,-6.261778564E0,-1.333831284E1,-1.428629150E0,1.480410218E1
1.331876708E0,-8.113428040E0,-1.492606110E1,-3.059338074E0,1.726193975E1
1.341902708E0,-9.266180878E0,-1.694176941E1,-2.897075500E0,1.952635924E1
1.351928708E0,-1.033316208E1,-1.892469589E1,-1.729204102E0,2.163119275E1
1.361954708E0,-1.181822388E1,-2.166384979E1,-3.450175323E0,2.491779511E1
1.371980708E0,-1.312081512E1,-2.351579865E1,-1.578018494E0,2.697477929E1
1.382006708E0,-1.369262604E1,-2.432531525E1,1.115630035E0,2.793659965E1
1.392032708E0,-1.365131195E1,-2.445524506E1,2.870430908E0,2.815415959E1
1.402058708E0,-1.402688095E1,-2.340562775E1,7.862100677E0,2.839699679E1
1.412084708E0,-1.400203262E1,-2.204031693E1,9.238638153E0,2.769810323E1
1.422110708E0,-1.332993027E1,-2.043580353E1,8.643775177E0,2.588482096E1
1.432136708E0,-1.279883469E1,-1.921718765E1,7.871680756E0,2.439413513E1
1.442162708E0,-1.246113693E1,-1.819945404E1,6.166127472E0,2.290242758E1
1.452188708E0,-1.171419022E1,-1.641366760E1,3.977378998E0,2.055359531E1
1.462214708E0,-1.034708313E1,-1.357048004E1,1.577868805E0,1.713796160E1
1.472239708E0,-1.034289185E1,-1.126302841E1,-2.118993530E0,1.543766026E1
1.482265708E0,-9.590256958E0,-8.858877869E0,-5.737568665E0,1.426087093E1
1.492291708E0,-8.901988220E0,-8.165370026E0,-3.245251465E0,1.250801019E1
1.502317708E0,-8.598569183E0,-7.795938263E0,-7.258406067E-1,1.162922568E1
1.512343708E0,-9.066496124E0,-5.176535339E0,-1.108909012E1,1.523042316E1
1.522369708E0,-6.096671906E0,-2.767744446E-1,-2.255045609E1,2.336170118E1
1.532395708E0,-1.903591461E0,1.040336609E-1,-1.298774185E1,1.312691593E1
1.542421708E0,-8.822653198E-1,-6.530918884E-1,-8.493637390E0,8.564274472E0
1.552447708E0,8.318202209E-1,8.532257080E-2,-1.097832047E1,1.101011921E1
1.562473708E0,6.426136780E-1,5.146298218E-1,-4.460424500E0,4.535767069E0
1.572499708E0,-1.924847260E0,-1.519340515E0,8.299640808E0,8.654332448E0
1.582525708E0,-3.036884766E0,-3.068020020E0,1.120869141E1,1.201125218E1
1.592551708E0,-1.871408386E0,-1.640588379E0,7.893535309E0,8.276569292E0
1.602577708E0,-9.764195251E-1,-4.082011414E-1,5.628146210E0,5.726783829E0
1.612603708E0,-2.719844055E-1,3.450325012E-1,4.097279663E0,4.120767353E0
1.622629708E0,3.152444458E-1,1.144070892E0,2.653082886E0,2.906393997E0
1.632654708E0,5.292993164E-1,1.765428772E0,1.529369659E0,2.394967238E0
1.642680708E0,6.372248840E-1,2.116448822E0,7.848179626E-1,2.345495769E0
1.652706917E0,5.851332092E-1,2.245480499E0,3.062631226E-1,2.340589807E0
1.662732917E0,4.740641785E-1,2.319576416E0,6.885681152E-3,2.367534373E0
1.672758917E0,3.812571716E-1,2.283351746E0,-3.832031250E-2,2.315279826E0
1.682784917E0,3.152444458E-1,2.144889679E0,-1.950444031E-1,2.176688566E0
1.692810917E0,2.579136658E-1,2.026336212E0,-5.565426636E-1,2.117143746E0
1.702836917E0,1.480421448E-1,1.819466400E0,-9.660910034E-1,2.065358633E0
1.712862917E0,6.750961304E-2,1.589095459E0,-1.118623810E0,1.944505375E0
1.722888917E0,1.766326904E-2,1.355131989E0,-1.091081085E0,1.739871441E0
1.732914917E0,-5.538482666E-3,1.145418091E0,-1.092128906E0,1.582642987E0
1.742940917E0,-1.960922241E-2,9.681866455E-1,-1.205143890E0,1.546008311E0
1.752966917E0,-2.454895020E-2,7.011419678E-1,-1.002764740E0,1.223821815E0
1.762992917E0,-8.382568359E-3,5.134323120E-1,-6.273454285E-1,8.107066628E-1
1.773018917E0,5.089416504E-2,3.884422302E-1,-3.607498169E-1,5.325579899E-1
1.783043917E0,7.768844604E-2,3.201841736E-1,-1.766326904E-1,3.738348659E-1
1.793069917E0,7.993377686E-2,2.603086853E-1,-2.933898926E-2,2.738809899E-1
1.803095917E0,7.185058594E-2,1.681004333E-1,1.408570862E-1,2.307834074E-1
1.813121917E0,2.993774414E-3,4.236190796E-2,3.158432007E-1,3.186854583E-1
1.823147917E0,-1.008901978E-1,-1.013392639E-1,4.134402466E-1,4.374715030E-1
1.833173917E0,-2.246827698E-1,-2.748284912E-1,5.035528564E-1,6.160994448E-1
1.843199917E0,-3.570075989E-1,-4.331991577E-1,5.783972168E-1,8.060144393E-1
1.853225917E0,-4.918771362E-1,-4.866380310E-1,5.682183838E-1,8.953389425E-1
1.863251917E0,-9.460327148E-1,-5.987548828E-1,-1.904339905E0,2.209071248E0
1.873277917E0,-8.801846466E0,-3.989054718E0,-3.191273712E1,3.334378277E1
1.883303917E0,-2.880010986E0,-3.659589844E0,-3.287613373E0,5.700479172E0
1.893329917E0,6.017486572E-1,-2.232008514E0,8.836574249E0,9.133948101E0
1.903355917E0,-8.292755127E-1,-3.879781952E0,3.841311951E0,5.522325902E0
1.913381917E0,-1.143023071E0,-5.724545746E0,6.318360901E0,8.602244487E0
1.923407917E0,-3.496728516E0,-1.006866211E1,8.218210144E0,1.345897637E1
1.933432917E0,-1.007988876E1,-2.245330811E1,1.435140610E1,2.849066618E1
1.943458917E0,-2.412024170E1,-4.958109558E1,2.837679016E1,6.201059037E1
1.953484917E0,-3.052946365E1,-6.942293427E1,2.505250305E1,7.987001854E1
1.963510917E0,-2.521925629E1,-6.322162994E1,8.447982330E0,6.858829190E1
1.973536917E0,-2.118275024E1,-4.921331039E1,-1.294358368E0,5.359416192E1
1.983562917E0,-1.184382065E1,-3.483870255E1,-3.829097351E1,5.310564880E1
1.993588917E0,2.207908630E-1,-1.969948471E1,-3.397993835E1,3.927791564E1
2.003614917E0,-3.252586212E0,-1.545700699E1,3.094065857E-1,1.579854786E1
2.013640917E0,1.042462189E1,-1.071831116E1,-5.027056183E1,5.244696676E1
2.023666917E0,-7.122339020E0,-2.167268143E1,1.456576035E1,2.706647757E1
2.033692917E0,-6.396648102E0,-1.751328094E1,1.829510513E1,2.612169574E1
2.043718917E0,-2.809208221E0,-1.182855240E1,1.140702896E1,1.667113111E1
2.053744917E0,-9.901908875E-1,-8.741970978E0,7.167994080E0,1.134824540E1
2.063770917E0,4.613406372E-1,-6.265221405E0,4.468058624E0,7.709045486E0
2.073796917E0,7.539820862E-1,-4.755610657E0,2.243833923E0,5.312166449E0
2.083822917E0,4.230203247E-1,-4.431534576E0,2.472857666E-1,4.458541819E0
2.093847917E0,-1.815724182E-1,-4.806804199E0,-5.080435181E-1,4.836987014E0
2.103873917E0,-1.403032379E0,-5.519472198E0,1.175505524E0,5.815056874E0
2.113899917E0,-3.367696838E0,-5.967041473E0,2.068398743E0,7.157180960E0
2.123925917E0,-4.008963318E0,-5.689368896E0,1.890119476E0,7.212021697E0
2.133951917E0,-3.657045135E0,-5.012925568E0,1.905238037E0,6.491019477E0
2.143977917E0,-3.317251740E0,-4.344266052E0,1.329684906E0,5.625377195E0
2.154003917E0,-3.071612549E0,-3.789369965E0,6.306385803E-1,4.918519431E0
2.164029917E0,-2.827919312E0,-3.337160339E0,1.496887207E-4,4.374216134E0
2.174055917E0,-2.455942841E0,-2.871329041E0,-4.079017639E-1,3.800338083E0
2.184081917E0,-2.021695862E0,-2.419418793E0,-6.237528992E-1,3.214017600E0
2.194107917E0,-1.719025269E0,-2.004331970E0,-1.145867157E0,2.878438129E0
2.204133917E0,-1.628313904E0,-1.792672119E0,-2.298619995E0,3.338971904E0
2.214159917E0,-2.210902405E0,-2.591710510E0,-1.658700714E0,3.788976230E0
2.224185917E0,-3.183430023E0,-3.787723389E0,-4.361929321E-1,4.967025212E0
2.234211917E0,-3.951033783E0,-4.657714233E0,-4.790039063E-2,6.107967279E0
2.244236917E0,-4.762047272E0,-5.586083679E0,1.895059204E-1,7.342842609E0
2.254262917E0,-5.608087921E0,-6.716083832E0,5.185217285E-1,8.765004104E0
2.264288917E0,-6.475234680E0,-8.124355316E0,7.879614258E-1,1.041895852E1
2.274314917E0,-7.453001404E0,-9.924661560E0,8.734336853E-1,1.244222743E1
2.284340917E0,-8.496032410E0,-1.207688599E1,8.327183533E-1,1.478942736E1
2.294366917E0,-9.587412872E0,-1.446636703E1,7.282356262E-1,1.737022130E1
2.304392917E0,-1.053763687E1,-1.694236816E1,5.005590820E-1,1.995836139E1
2.314418917E0,-1.071112610E1,-1.847054031E1,2.137554932E-1,2.135262919E1
2.324444917E0,-9.035360870E0,-1.778661255E1,-1.859133911E-1,1.995083697E1
2.334470917E0,-6.469396820E0,-1.486304214E1,-3.511697388E-1,1.621377307E1
2.344496917E0,-4.857848053E0,-1.216056198E1,-3.080593872E-1,1.309858221E1
2.354522917E0,-3.575315094E0,-1.012225067E1,-4.911286926E-1,1.074635027E1
2.364548917E0,-2.393073578E0,-8.756341095E0,-1.473984833E0,9.196354811E0
2.374574917E0,-1.201551361E0,-7.494315491E0,-6.035449219E-1,7.613984293E0
2.384600917E0,-2.909948730E-1,-6.563700714E0,7.144642639E-1,6.608880712E0
2.394626917E0,9.984237671E-2,-6.213728485E0,8.936416626E-1,6.278454078E0
2.404651917E0,1.353186035E-1,-6.259533234E0,8.740324402E-1,6.321708640E0
2.414677917E0,9.391470337E-1,-7.046596527E0,2.046244812E-1,7.111848631E0
2.424703917E0,3.906127167E0,-8.372389526E0,-1.515747986E0,9.362276848E0
2.434729917E0,2.731220398E0,-8.496032410E0,-9.026229858E-1,8.969774792E0
2.444755917E0,-3.704795837E-1,-8.447233887E0,-8.143066406E-2,8.455746355E0
2.454781917E0,-1.747615814E0,-8.595126343E0,4.605921936E-1,8.783080499E0
2.464807917E0,-2.781216431E0,-8.818461914E0,5.510041809E-1,9.263047067E0
2.474833917E0,-3.540138245E0,-8.892707520E0,4.394860840E-1,9.581543395E0
2.484859917E0,-3.926335144E0,-9.038354645E0,4.070036316E-1,9.862738682E0
2.494885917E0,-4.180506592E0,-9.275611267E0,6.735992432E-1,1.019643740E1
2.504911917E0,-4.393813019E0,-9.406588898E0,1.053060150E0,1.043544169E1
2.514937917E0,-4.614903259E0,-9.416019287E0,1.371597748E0,1.057544475E1
2.524963917E0,-4.852608948E0,-9.343420258E0,1.581611023E0,1.064653977E1
2.534989917E0,-5.111869812E0,-9.252559204E0,1.677711182E0,1.070307337E1
2.545015917E0,-5.298681335E0,-9.139843597E0,1.592837677E0,1.068409550E1
2.555041917E0,-5.473966827E0,-8.984017639E0,1.312620392E0,1.060187993E1
2.565066917E0,-5.727988586E0,-8.942853241E0,9.889933777E-1,1.066595449E1
2.575092917E0,-6.007457428E0,-9.035959625E0,7.252418518E-1,1.087492928E1
2.585118917E0,-6.221212921E0,-9.112001495E0,5.248086548E-1,1.104569987E1
2.595144917E0,-6.228697357E0,-9.108259277E0,2.639012146E-1,1.103751338E1
2.605170917E0,-5.892197113E0,-8.891510010E0,-5.807922363E-2,1.066678538E1
2.615196917E0,-5.479056244E0,-8.592881012E0,-3.185375977E-1,1.019603490E1
2.625222917E0,-5.087620239E0,-8.299640808E0,-4.522096252E-1,9.745378945E0
2.635248917E0,-4.664300537E0,-8.036937103E0,-4.300556946E-1,9.302311831E0
2.645274917E0,-4.194876709E0,-7.774832153E0,-3.049159241E-1,8.839568956E0
2.655301542E0,-3.758683777E0,-7.554640045E0,-2.543211365E-1,8.441858160E0
2.665327542E0,-3.405867462E0,-7.391030273E0,-2.100132751E-1,8.140722772E0
2.675353542E0,-3.150648193E0,-7.244784393E0,-2.218386841E-1,7.903334571E0
2.685379542E0,-2.934647369E0,-7.066205750E0,-4.246669006E-1,7.663143014E0
2.695405542E0,-2.766996002E0,-6.815327454E0,-8.217910767E-1,7.401371207E0
2.705431542E0,-2.720742188E0,-6.595734100E0,-9.602531433E-1,7.199182764E0
2.715456542E0,-2.769690399E0,-6.495742035E0,-2.974314880E-1,7.067836655E0
2.725482542E0,-2.624941406E0,-6.371949463E0,1.462159424E0,7.044853975E0
2.735508542E0,-2.297272797E0,-5.980962524E0,3.859124908E0,7.479453194E0
2.745534542E0,-2.780617676E0,-5.413642273E0,4.099075928E0,7.337695877E0
2.755560542E0,-4.498894501E0,-5.202581177E0,1.436862030E0,7.026483838E0
2.765586542E0,-6.620283051E0,-5.295537872E0,-1.189875641E0,8.560763580E0
2.775612542E0,-7.696844330E0,-5.549409943E0,-4.505630493E-2,9.488908969E0
2.785638542E0,-7.321574707E0,-5.373974762E0,2.730322266E0,9.483655445E0
2.795664542E0,-6.885980530E0,-4.593348083E0,4.209246826E-1,8.288109076E0
2.805690542E0,-5.022655334E0,-4.211941223E0,-2.370769958E0,6.970514018E0
2.815716542E0,-2.633323975E0,-5.023703156E0,-2.131417694E0,6.059284606E0
2.825742542E0,-1.253343658E0,-6.148464203E0,1.002615051E0,6.354503861E0
2.835768542E0,-8.587641907E-1,-7.034022675E0,4.407285004E0,8.345005214E0
2.845794542E0,-1.037941589E0,-7.962242432E0,4.074377289E0,9.004175563E0
2.855820542E0,-1.607357483E0,-9.178612976E0,1.770069122E0,9.484918499E0
2.865846542E0,-2.875071259E0,-1.059317139E1,2.696043549E0,1.130265303E1
2.875871542E0,-4.749623108E0,-1.141361526E1,3.351680145E0,1.280871941E1
2.885897542E0,-7.600145416E0,-1.162302979E1,-1.071920929E0,1.392860532E1
2.895923542E0,-9.565258942E0,-1.100795883E1,-1.453627167E0,1.465545524E1
2.905949542E0,-9.856253815E0,-9.642348633E0,4.770579529E-1,1.379667390E1
2.915975542E0,-9.815388794E0,-8.406219177E0,-1.748813324E0,1.304088671E1
2.926001542E0,-8.185727692E0,-7.836653595E0,-3.804338837E0,1.195375554E1
2.936027542E0,-5.569019165E0,-8.369844818E0,-7.143145752E-1,1.007861707E1
2.946053542E0,-4.449646912E0,-1.068777466E1,4.689747620E-1,1.158653624E1
2.956079542E0,-4.121529236E0,-1.440185120E1,-8.210426331E-1,1.500248087E1
2.966105542E0,-4.248165894E0,-1.812206497E1,-1.036295013E0,1.864215813E1
2.976131542E0,-4.761448517E0,-1.958736786E1,4.052073669E-1,2.016185916E1
2.986157542E0,-6.212980042E0,-2.077903976E1,8.982820129E-1,2.170660096E1
2.996183542E0,-8.569978638E0,-2.356833939E1,-7.182064819E-1,2.508838328E1
3.006209542E0,-1.109028763E1,-2.584001541E1,1.361867981E0,2.815236332E1
3.016235542E0,-1.453402634E1,-2.910517548E1,1.353186035E0,3.256040960E1
3.026261542E0,-1.769649994E1,-3.212993546E1,1.132993927E0,3.669853591E1
3.036286542E0,-1.813164505E1,-3.240401550E1,6.511609039E0,3.769851224E1
3.046312542E0,-1.747735565E1,-3.107507904E1,7.548053741E0,3.644299128E1
3.056338542E0,-1.523876083E1,-2.702315506E1,7.258106689E0,3.186143207E1
3.066364542E0,-1.244736557E1,-2.220362732E1,6.389163666E0,2.624422581E1
3.076390542E0,-1.024783951E1,-1.870525223E1,5.350922699E0,2.198947587E1
3.086416542E0,-8.695567474E0,-1.631577118E1,4.904550934E0,1.912777830E1
3.096442542E0,-7.388036499E0,-1.451022583E1,4.781656494E0,1.697038526E1
3.106468542E0,-7.076534271E0,-1.337169342E1,4.754113770E0,1.585815626E1
3.116494542E0,-7.404651947E0,-1.221265366E1,3.513793030E0,1.470797475E1
3.126520542E0,-7.447462921E0,-1.101140167E1,2.113305359E0,1.346037631E1
3.136546542E0,-7.189998322E0,-9.943222961E0,1.048419800E0,1.231515095E1
3.146572542E0,-6.820865936E0,-8.586444397E0,-1.212927704E0,1.103278900E1
3.156598542E0,-6.030509491E0,-6.491999817E0,-6.522985382E0,1.100283803E1
3.166624542E0,-4.611610107E0,-5.162464600E0,-2.354902954E0,7.311877765E0
3.176650542E0,-3.256478119E0,-3.327280884E0,-5.838159485E0,7.467232017E0
3.186676542E0,2.908451843E0,8.255931702E0,-6.234894470E1,6.296038759E1
3.196701542E0,2.312541046E0,2.499502258E0,-2.158616135E1,2.185309404E1
3.206727542E0,1.284478912E0,-4.321962433E0,1.151809799E1,1.236914818E1
3.216753542E0,1.177301788E0,-2.693349152E0,1.159878021E1,1.196544490E1
3.226779542E0,-4.415817261E-2,-1.475182343E0,1.115195938E1,1.124919157E1
3.236805542E0,-3.405418396E-1,-3.258723450E-1,8.430768127E0,8.443933488E0
3.246831542E0,-2.896476746E-1,7.450007629E-1,6.838379517E0,6.884936915E0
3.256857542E0,-2.579136658E-1,1.476828918E0,5.647605743E0,5.843200642E0
3.266883542E0,-2.210902405E-1,1.544937286E0,3.561394043E0,3.888346646E0
3.276909542E0,-1.984872437E-1,1.527573395E0,2.438129883E0,2.883982487E0
3.286935542E0,-1.468446350E-1,1.455124054E0,1.709594879E0,2.249814217E0
3.296961542E0,-9.056167603E-2,1.382824402E0,1.208736420E0,1.838871522E0
3.306987542E0,-6.077362061E-2,1.330583038E0,8.592132568E-1,1.585052704E0
3.317013542E0,-1.407073975E-2,1.272354126E0,5.704637146E-1,1.394457549E0
3.327039542E0,3.891906738E-3,1.296753387E0,4.558021545E-1,1.374532684E0
3.337065542E0,7.484436035E-4,1.252146149E0,2.977308655E-1,1.287056411E0
3.347090542E0,-3.382965088E-2,1.160536652E0,1.148112488E-1,1.166692499E0
3.357116542E0,-3.173400879E-2,1.081950073E0,-1.347198486E-2,1.082499193E0
3.367142542E0,-6.301895142E-2,1.105301514E0,-1.520837402E-1,1.117493753E0
3.377168542E0,-1.052311707E-1,1.150806885E0,-3.517684937E-1,1.207961572E0
3.387194542E0,-1.106199646E-1,1.222507782E0,-6.045927429E-1,1.368318106E0
3.397220542E0,-1.041833496E-1,1.279389496E0,-8.467890930E-1,1.537772226E0
3.407246542E0,-1.372645569E-1,1.395398254E0,-1.207688599E0,1.850537651E0
3.417272542E0,-2.550695801E-1,1.659449158E0,-1.814676361E0,2.472222137E0
3.427298542E0,-4.502636719E-1,1.933678894E0,-2.586920471E0,3.260982822E0
3.437324542E0,-7.912545776E-1,1.954186249E0,-2.775977325E0,3.485825270E0
3.447350542E0,-1.107546844E0,1.697769470E0,-2.173480225E0,2.972052737E0
3.457376542E0,-1.179696808E0,1.368005219E0,-1.362616425E0,2.262707749E0
3.467402542E0,-1.112935638E0,1.126108246E0,-7.277865601E-1,1.742532293E0
3.477428542E0,-1.006956024E0,8.671467590E-1,-7.484436035E-4,1.328873394E0
3.487454542E0,-8.548722839E-1,5.878276062E-1,7.042854309E-1,1.253940144E0
3.497480542E0,-8.041278076E-1,3.787124634E-1,9.027726746E-1,1.266902981E0
3.507505542E0,-8.967851257E-1,3.454815674E-1,1.014440460E0,1.397379878E0
3.517531542E0,-1.047521667E0,4.390370178E-1,1.089434509E0,1.573824227E0
3.527557542E0,-1.248852997E0,5.517526245E-1,1.017883301E0,1.702983024E0
3.537583542E0,-1.803749084E0,4.628375244E-1,4.897814941E-1,1.925516878E0
3.547609542E0,-2.946023712E0,-5.522016907E-1,-1.183888092E0,3.222665579E0
3.557635542E0,-3.758683777E0,-3.645369415E0,-5.353617096E0,7.488500378E0
3.567661542E0,-2.599943390E0,-6.285878448E0,-3.214265900E0,7.523528346E0
3.577687542E0,-7.131170654E-1,-3.793261871E0,2.320025482E0,4.503319866E0
3.587713542E0,-1.610950012E0,-3.824546814E0,2.907104645E0,5.066909876E0
3.597739542E0,-3.579506378E0,-1.146316223E1,5.619015198E0,1.325859291E1
3.607765542E0,-1.006342300E1,-3.007740372E1,1.079225739E1,3.350217182E1
3.617791542E0,-1.202958435E1,-5.258594696E1,2.135504196E1,5.801750197E1
3.627817542E0,-1.267459305E1,-7.341153992E1,1.993928604E1,7.711987182E1
3.637843542E0,-9.765692139E0,-7.453046310E1,7.689509583E0,7.555982551E1
3.647869542E0,-6.903494110E0,-6.268095428E1,7.303312683E-1,6.306420256E1
3.657894792E0,-9.572144623E0,-5.050048370E1,-1.289014481E1,5.299132608E1
3.667919792E0,-4.831652527E0,-3.183115677E1,-8.891809387E0,3.340107306E1
3.677945792E0,-1.439556427E0,-2.154424850E1,2.946472778E0,2.179239932E1
3.687971792E0,-2.019450531E0,-1.767344788E1,1.856140137E-2,1.778845931E1
3.697997792E0,-1.584305420E0,-1.453597229E1,1.475631409E0,1.469632614E1
3.708023792E0,-1.376088409E0,-1.230815506E1,1.508413239E0,1.247636208E1
3.718049792E0,-9.279203796E-1,-1.045680496E1,6.959028625E-1,1.052093565E1
3.728075792E0,9.015152893E0,-5.209915924E0,-1.281574951E1,1.651240870E1
3.738101792E0,5.788163452E0,-5.702391815E0,-5.356461182E0,9.731997994E0
3.748127792E0,-1.023571472E0,-7.671846313E0,3.198398895E0,8.374645062E0
3.758153792E0,1.133143616E0,-5.590873718E0,1.302591248E0,5.851378243E0
3.768179792E0,2.072140961E0,-3.882027283E0,3.805536346E0,5.817732451E0
3.778205792E0,4.487518158E0,-1.368005219E0,3.064128113E0,5.603404196E0
3.788231792E0,6.296057281E0,-1.290017395E0,1.470691681E0,6.592982344E0
3.798257792E0,6.322103119E0,-2.101030884E0,1.078357544E0,6.748790530E0
3.808283792E0,5.045557709E0,-2.343077545E0,7.478448486E-1,5.613104034E0
3.818308792E0,3.230282593E0,-2.712658997E0,3.269201660E-1,4.230853490E0
3.828334792E0,1.551224213E0,-2.640658722E0,-7.247927856E-1,3.147173275E0
3.838360792E0,3.329077148E-1,-2.416425018E0,-1.355281677E0,2.790470541E0
3.848386792E0,-1.540296936E-1,-1.800755310E0,-8.741821289E-1,2.007645195E0
3.858412792E0,-1.146615601E-1,-1.187779999E0,-1.327738953E-1,1.200665443E0
3.868438792E0,-3.218307495E-2,-8.518785095E-1,3.433859253E-1,9.190465924E-1
3.878464792E0,-5.388793945E-2,-7.831713867E-1,7.444020081E-1,1.081848271E0
3.888490792E0,-2.369572449E-1,-9.937834167E-1,1.212628326E0,1.585629740E0
3.898516792E0,-5.526507568E-1,-1.942360840E0,1.666334839E0,2.618178811E0
3.908542792E0,-9.533674622E-1,-3.522924042E0,1.936223602E0,4.131448313E0
3.918568792E0,-1.338965607E0,-5.137915649E0,2.286794586E0,5.781041048E0
3.928594792E0,-1.694027252E0,-7.078629913E0,2.951262817E0,7.854086961E0
3.938620792E0,-1.990410919E0,-9.573342133E0,3.680695953E0,1.044787720E1
3.948646792E0,-2.608026581E0,-1.312335983E1,4.379742279E0,1.407858368E1
3.958672792E0,-3.529360657E0,-1.767973480E1,4.751269684E0,1.864414044E1
3.968698792E0,-4.313579865E0,-2.188074875E1,3.967499542E0,2.265204604E1
3.978723792E0,-5.003345490E0,-2.437875412E1,2.081421661E0,2.497377494E1
3.988749792E0,-5.114863586E0,-2.442455887E1,2.634521484E-2,2.495439039E1
3.998775792E0,-4.143683167E0,-1.978346008E1,-3.904480591E0,2.058641231E1
4.008801792E0,-3.207380219E0,-1.441996353E1,-2.793191528E0,1.503411304E1
4.018827792E0,-2.863994293E0,-1.249167343E1,-1.974394226E-1,1.281730669E1
4.028853792E0,-2.370470581E0,-1.025247986E1,-2.341131592E-1,1.052555381E1
4.038879792E0,-1.893562317E0,-8.487949219E0,-7.768844604E-2,8.696947492E0
4.048905792E0,-1.583407288E0,-7.185956726E0,-3.053649902E-1,7.364672463E0
4.058931792E0,-6.773414612E-1,-5.027145996E0,-8.667276306E0,1.004254285E1
4.068957792E0,1.072220306E0,-2.934497681E0,-2.085777603E1,2.109046595E1
4.078983792E0,3.149450684E-1,-5.449417877E0,-4.533771973E0,7.095803964E0
4.089009792E0,-1.480421448E0,-7.736212463E0,2.176324310E0,8.171720654E0
4.099035792E0,-2.010768585E0,-8.868757324E0,2.425855408E0,9.411844731E0
4.109061792E0,-1.921554108E0,-9.255253601E0,2.993475037E0,9.915290324E0
4.119087792E0,-1.523980865E0,-9.076375580E0,2.455194397E0,9.525286918E0
4.129113792E0,-1.103355560E0,-9.066645813E0,2.056872711E0,9.362274571E0
4.139138792E0,-8.315208435E-1,-9.370214539E0,1.796863403E0,9.577111543E0
4.149164792E0,-6.846762085E-1,-9.857900391E0,1.463656311E0,9.989458014E0
4.159190792E0,-6.628216553E-1,-1.043390259E1,1.021775208E0,1.050474561E1
4.169216792E0,-6.288423157E-1,-1.094748459E1,8.042774963E-1,1.099498630E1
4.179242792E0,-2.478845215E-1,-1.120045853E1,1.080004120E0,1.125513780E1
4.189268792E0,1.092727661E-2,-1.131047974E1,1.018182678E0,1.135622152E1
4.199294792E0,2.092648315E-1,-1.111977631E1,1.099313965E0,1.117594327E1
4.209320792E0,3.520678711E-1,-1.061158310E1,1.172960815E0,1.068201689E1
4.219346792E0,2.044747925E-1,-1.010054581E1,1.359323273E0,1.019365466E1
4.229372792E0,5.373825073E-2,-9.635462952E0,1.531165924E0,9.756510810E0
4.239398792E0,-5.837860107E-2,-9.268126831E0,1.692829742E0,9.421637626E0
4.249424792E0,-2.034269714E-1,-9.066795502E0,1.816472626E0,9.249201912E0
4.259450792E0,-1.302291870E-1,-8.988508301E0,1.753753052E0,9.158924112E0
4.269476792E0,-7.394622803E-2,-9.095386047E0,1.479223938E0,9.215184147E0
4.279502792E0,-1.450483704E-1,-9.481433258E0,1.187480621E0,9.556606400E0
4.289527792E0,-2.234852600E-1,-9.915081482E0,9.295669556E-1,9.961068275E0
4.299553792E0,-3.597019958E-1,-1.025637177E1,7.616162109E-1,1.029089921E1
4.309579792E0,-4.206253052E-1,-1.046698380E1,7.131170654E-1,1.049967673E1
4.319605792E0,-4.155358887E-1,-1.051563263E1,7.303312683E-1,1.054915084E1
4.329631792E0,-2.866539001E-1,-1.033001862E1,8.123606873E-1,1.036587599E1
4.339657792E0,-1.305285645E-1,-9.955796814E0,9.559121704E-1,1.000243450E1
4.349683792E0,-7.589218140E-2,-9.520352325E0,1.011895752E0,9.574278095E0
4.359709792E0,-8.771759033E-2,-9.283993835E0,8.692424011E-1,9.325010363E0
4.369735792E0,-7.888595581E-2,-9.244925079E0,5.569917297E-1,9.262024752E0
4.379761792E0,-1.392105103E-2,-9.276359711E0,2.540217590E-1,9.279847538E0
4.389787792E0,9.280700684E-3,-9.393865356E0,1.721420288E-2,9.393885713E0
4.399813792E0,-3.502716064E-2,-9.659712524E0,-1.523831177E-1,9.660977879E0
4.409839792E0,-8.008346558E-2,-9.899663544E0,-2.722837830E-1,9.903731120E0
4.419865792E0,-1.459465027E-1,-9.991123352E0,-3.610491943E-1,9.998710054E0
4.429891792E0,-2.731819153E-1,-9.936187592E0,-4.122427368E-1,9.948487136E0
4.439917792E0,-4.330494690E-1,-9.790091400E0,-4.058061218E-1,9.808063013E0
4.449942792E0,-5.498066711E-1,-9.645641785E0,-2.436932373E-1,9.664371641E0
4.459968792E0,-6.634204102E-1,-9.521100769E0,3.832031250E-2,9.544262933E0
4.469994792E0,-7.068301392E-1,-9.405541077E0,2.478845215E-1,9.435319736E0
4.480020792E0,-7.149133301E-1,-9.371112671E0,3.203338623E-1,9.403800697E0
4.490046792E0,-7.469467163E-1,-9.497150574E0,3.632945251E-1,9.533403449E0
4.500072792E0,-8.144563293E-1,-9.762099609E0,3.170407104E-1,9.801144969E0
4.510098792E0,-9.342073059E-1,-1.007479935E1,2.585124207E-1,1.012132174E1
4.520124792E0,-1.064286804E0,-1.035681290E1,1.694476318E-1,1.041273222E1
4.530150792E0,-1.192270660E0,-1.053763687E1,9.340576172E-2,1.060528287E1
4.540176792E0,-1.346599731E0,-1.063433578E1,1.841171265E-2,1.071927084E1
4.550202792E0,-1.514550476E0,-1.052910461E1,-5.044509888E-2,1.063759615E1
4.560228792E0,-1.624871063E0,-1.019529877E1,-1.079255676E-1,1.032453248E1
4.570254792E0,-1.708846436E0,-9.759405212E0,-9.864486694E-2,9.908374087E0
4.580280792E0,-1.757046204E0,-9.362730103E0,-4.176315308E-2,9.526262147E0
4.590306792E0,-1.797611847E0,-9.028624878E0,-7.783813477E-3,9.205842500E0
4.600332792E0,-1.879341888E0,-8.713530121E0,8.158035278E-2,8.914268812E0
4.610357792E0,-1.954785004E0,-8.396489410E0,1.939965820E-1,8.623215961E0
4.620383792E0,-1.964814148E0,-8.063282318E0,2.999761963E-1,8.304637385E0
4.630409792E0,-1.946851501E0,-7.633825378E0,4.047583008E-1,7.888558167E0
4.640435792E0,-1.885179749E0,-7.091802521E0,5.574407959E-1,7.359232699E0
4.650461792E0,-1.805395660E0,-6.516997833E0,7.589218140E-1,6.804900923E0
4.660487917E0,-1.796863403E0,-5.919590149E0,1.163231049E0,6.294709850E0
4.670513917E0,-2.051932983E0,-5.422473907E0,2.424657898E0,6.284315250E0
4.680539917E0,-3.186124420E0,-4.963977356E0,2.088906097E0,6.257474626E0
4.690565917E0,-4.233945465E0,-4.572391663E0,7.565267944E-1,6.277371465E0
4.700591917E0,-4.549788666E0,-4.513863373E0,1.601819000E0,6.606161031E0
4.710617917E0,-4.406686249E0,-4.459825745E0,2.384092255E0,6.707669137E0
4.720643917E0,-4.234394531E0,-4.385879517E0,2.018552399E0,6.421883677E0
4.730669917E0,-4.266727295E0,-4.558470612E0,6.658154297E-1,6.279166052E0
4.740695917E0,-4.609514465E0,-5.625751190E0,-1.705104218E0,7.470212879E0
4.750721917E0,-4.566703491E0,-7.066654816E0,-3.059188385E0,8.952710463E0
4.760747917E0,-3.963158569E0,-7.767347717E0,-2.095642090E0,8.968279220E0
4.770772917E0,-3.242108002E0,-7.934550018E0,-8.768765259E-1,8.616104731E0
4.780798917E0,-2.449206848E0,-8.259524231E0,-7.198530579E-1,8.645029967E0
4.790824917E0,-1.618135071E0,-9.107061768E0,-1.263223114E0,9.335559318E0
4.800850917E0,-9.991722107E-1,-1.065065186E1,-4.376898193E-1,1.070636738E1
4.810876917E0,-3.873944092E-1,-1.192270660E1,2.193688202E0,1.212902614E1
4.820902917E0,6.941065979E-1,-1.262878830E1,2.506837006E0,1.289388652E1
4.830928917E0,1.687740326E0,-1.250813919E1,-1.197509766E-3,1.262149020E1
4.840954917E0,1.757794647E0,-1.204530167E1,-6.978488159E-1,1.219287198E1
4.850980917E0,8.235873413E-1,-1.235695358E1,1.275647278E0,1.244989454E1
4.861006917E0,3.517684937E-1,-1.324954742E1,9.331594849E-1,1.328702505E1
4.871032917E0,3.995191956E-1,-1.510763351E1,-1.513802032E0,1.518854182E1
4.881058917E0,6.051914978E-1,-1.643252838E1,-1.825004883E0,1.654463323E1
4.891084917E0,1.977388000E-1,-1.702080505E1,-4.706213379E-1,1.702845823E1
4.901110917E0,-6.653663635E-1,-1.929218170E1,-9.418414307E-1,1.932661513E1
4.911136917E0,-1.687440948E0,-2.355471771E1,-3.035537567E0,2.380938201E1
4.921161917E0,-2.650987244E0,-2.809342941E1,-3.024011536E0,2.837980189E1
4.931187917E0,-3.441792755E0,-3.124916702E1,-8.173004150E-2,3.143824195E1
4.941213917E0,-4.937332764E0,-3.470652740E1,7.580236816E-1,3.506415405E1
4.951239917E0,-7.323221283E0,-3.814143448E1,4.080514526E-1,3.884025103E1
4.961265917E0,-9.015152893E0,-3.903777054E1,2.514770508E0,4.014404789E1
4.971291917E0,-9.196725311E0,-3.680067261E1,5.488037567E0,3.832737686E1
4.981317917E0,-7.948022003E0,-3.088018433E1,7.531587982E0,3.276402990E1
4.991343917E0,-6.891519012E0,-2.498454437E1,7.537874908E0,2.699148106E1
5.001369917E0,-6.009553070E0,-2.100312378E1,5.998925171E0,2.265464720E1
5.011395917E0,-4.750371552E0,-1.782613037E1,4.399950256E0,1.896566677E1
5.021421917E0,-3.996389465E0,-1.563079559E1,3.794160004E0,1.657373071E1
5.031447917E0,-4.238286438E0,-1.425365936E1,4.896617432E0,1.565588514E1
5.041473917E0,-5.492677917E0,-1.354518265E1,6.365213470E0,1.594231558E1
5.051499917E0,-7.137307892E0,-1.308938049E1,8.363557892E0,1.709450632E1
5.061525917E0,-7.683522034E0,-1.194441147E1,8.019124146E0,1.630986904E1
5.071550917E0,-6.726262665E0,-1.043060944E1,3.665427704E0,1.294123576E1
5.081576917E0,-5.558990021E0,-7.838000793E0,7.382647705E-1,9.637513235E0
5.091602917E0,-4.827910309E0,-5.184169464E0,-1.193617859E0,7.183944221E0
5.101628917E0,-3.723806305E0,-2.680026855E0,-3.515888672E0,5.780203327E0
5.111654917E0,-2.070045319E0,9.190887451E-2,-8.351732483E0,8.604938717E0
5.121680917E0,3.601510620E0,4.403243408E0,-2.320085358E1,2.388805220E1
5.131706917E0,7.485334167E0,6.396947479E0,-2.550411392E1,2.733881840E1
5.141732917E0,1.898801422E0,2.930905151E-1,-1.413061523E0,2.384972067E0
5.151758917E0,1.271605682E0,-1.292711792E0,2.040406952E0,2.729715245E0
5.161784917E0,1.043330383E0,-1.245559845E0,2.572250977E0,3.042438611E0
5.171810917E0,5.297483826E-1,-1.303938446E0,3.413202209E0,3.691996498E0
5.181836917E0,4.406835938E-1,-1.323547668E0,2.654879150E0,2.999060480E0
5.191862917E0,3.561094666E-1,-1.008153534E0,1.958527222E0,2.231370964E0
5.201888917E0,-4.894821167E-1,-3.124003601E-1,1.783391418E0,1.875545702E0
5.211914917E0,-1.505718842E0,1.444496155E-1,1.739233246E0,2.304991801E0
5.221939917E0,-9.966275024E-1,7.640112305E-1,1.554966431E0,1.998724628E0
5.231965917E0,-9.336085510E-1,1.253942413E0,1.519340515E0,2.179998189E0
5.241991917E0,-1.370549927E0,1.571881256E0,1.752256165E0,2.723897842E0
5.252017917E0,-2.878364410E0,2.825524292E0,4.251908112E0,5.860656260E0
5.262043917E0,-4.641248474E0,4.536915436E0,5.877976685E0,8.756448993E0
5.272069917E0,-3.631747742E0,3.340752869E0,2.688708801E0,5.619553043E0
5.282095917E0,-1.886676636E0,1.871109009E0,5.242098999E-1,2.708393190E0
5.292121917E0,-7.623646545E-1,1.389111328E0,3.891906738E-2,1.585037805E0
5.302147917E0,-1.155596924E-1,1.170715485E0,-1.570234680E-1,1.186838303E0
5.312173917E0,2.245330811E-1,9.852511597E-1,-3.867956543E-1,1.082010088E0
5.322199917E0,-1.407073975E-2,1.132844238E0,-4.297114105E0,4.443953610E0
5.332225917E0,-1.634002075E0,2.151475983E0,-1.776775177E1,1.797197303E1
5.342251917E0,-1.050814819E0,1.516496429E0,-6.918762360E0,7.160533904E0
5.352277917E0,-5.840853882E-1,4.153862000E-1,7.396119690E-1,1.029916162E0
5.362303917E0,-5.161267090E-1,3.920347595E-1,4.682263184E-1,7.995710835E-1
5.372329917E0,-4.174818420E-1,4.165837097E-1,8.120613098E-1,1.003631729E0
5.382354917E0,-3.249742126E-1,3.900888062E-1,9.723779297E-1,1.096948656E0
5.392380917E0,-2.691403198E-1,3.905378723E-1,1.165476379E0,1.258289129E0
5.402406917E0,-2.971321106E-1,3.138972473E-1,1.338516541E0,1.406572253E0
5.412432917E0,-3.854484558E-1,2.137554932E-1,1.441053314E0,1.506949428E0
5.422458917E0,-4.873864746E-1,8.652008057E-2,1.516945496E0,1.595667552E0
5.432484917E0,-5.812413025E-1,-2.978805542E-2,1.555265808E0,1.660596433E0
5.442510917E0,-6.709048462E-1,-9.789642334E-2,1.503623199E0,1.649418003E0
5.452536917E0,-7.223977661E-1,-1.317260742E-1,1.406624908E0,1.586758937E0
5.462562917E0,-7.818241882E-1,-2.585124207E-1,1.303339691E0,1.541678333E0
5.472588917E0,-1.166973267E0,-6.256988525E-1,1.266815643E0,1.832524907E0
5.482614917E0,-1.950743408E0,-1.489402771E0,1.276695099E0,2.766526854E0
5.492640917E0,-1.929637299E0,-2.202370148E0,8.396040344E-1,3.046123652E0
5.502666917E0,-1.830842743E0,-3.192860413E0,-3.686833191E-1,3.698955279E0
5.512692917E0,-3.059936829E0,-6.683751068E0,-1.255588989E0,7.457361829E0
5.522718917E0,-3.373684387E0,-1.035127441E1,2.059716797E-1,1.088912543E1
5.532743917E0,-5.429958344E0,-2.023641815E1,4.637356567E-1,2.095738815E1
5.542769917E0,-6.161337433E0,-3.986614792E1,1.013093262E0,4.035217698E1
5.552795917E0,-5.268294525E0,-7.032959885E1,-1.240919495E-1,7.052675237E1
5.562821917E0,-3.328328705E0,-8.835212082E1,-4.604425049E-1,8.841598856E1
5.572847917E0,-4.845423889E-1,-8.159726761E1,3.242257690E-1,8.159935039E1
5.582873917E0,1.272204437E0,-6.288887192E1,-3.115022278E-1,6.290250988E1
5.592899917E0,1.898502045E0,-4.003320053E1,-6.234984283E0,4.056028210E1
5.602925917E0,1.966161346E0,-2.884651337E1,5.710624695E-1,2.891908083E1
5.612951917E0,1.068478088E0,-2.116089569E1,-3.058140564E-1,2.119006074E1
5.622977917E0,1.022673340E0,-1.596220642E1,-2.179467773E-1,1.599641820E1
5.633003917E0,1.631607056E0,-1.202584213E1,8.851094055E-1,1.216825539E1
5.643029917E0,3.489992523E0,-1.020398071E1,1.771296570E1,2.073765715E1
5.653055917E0,1.193288544E1,-8.463699646E0,7.642058258E0,1.650542399E1
5.663081833E0,1.685674622E1,-4.006717987E0,-1.236264175E1,2.128470327E1
5.673107833E0,7.485334167E0,-5.184618530E0,-3.886967010E0,9.900455012E0
5.683132833E0,8.164621582E0,-3.275937653E0,-5.198838959E0,1.021864666E1
5.693158833E0,7.902217255E0,-2.156266022E0,-3.463796997E0,8.893391385E0
5.703184833E0,7.535928955E0,-1.655706940E0,-1.797013092E0,7.922174369E0
5.713210833E0,6.909032593E0,-1.537303162E0,-2.634521484E-2,7.078045383E0
5.723236833E0,5.139562225E0,-1.788929901E0,8.419990540E-1,5.506753351E0
5.733262833E0,3.127147064E0,-2.102527771E0,1.332229614E0,3.996812171E0
5.743288833E0,8.433462524E-1,-2.456990662E0,1.142124939E0,2.837690150E0
5.753314833E0,-1.170565796E-1,-2.470312958E0,1.398541718E0,2.841138379E0
5.763340833E0,-1.901046753E-1,-2.200573883E0,1.385967865E0,2.607598920E0
5.773366833E0,-2.399510193E-1,-1.930685120E0,1.315913544E0,2.348776272E0
5.783392833E0,-2.963836670E-2,-1.583556976E0,1.234482880E0,2.008103361E0
5.793418833E0,7.349716187E-2,-1.179846497E0,1.092577972E0,1.609709978E0
5.803444833E0,1.544787598E-1,-9.759704590E-1,9.192384338E-1,1.349585611E0
5.813470833E0,1.856140137E-2,-1.137035522E0,7.433541870E-1,1.358591091E0
5.823495833E0,-2.676434326E-1,-1.770817566E0,4.571493530E-1,1.848354238E0
5.833521833E0,-4.056564331E-1,-2.526146851E0,8.083190918E-2,2.559786876E0
5.843547833E0,-2.978805542E-1,-2.982996826E0,-1.519340515E-1,3.001680670E0
5.853573833E0,-2.585124207E-1,-3.505260773E0,-6.423143005E-1,3.572988863E0
5.863599833E0,-5.306465149E-1,-4.570894775E0,-1.865570526E0,4.965381975E0
5.873625833E0,-7.503895569E-1,-5.911806335E0,-2.978955231E0,6.662335394E0
5.883651833E0,-3.403921509E-1,-6.778653717E0,-1.896855469E0,7.047274204E0
5.893677833E0,7.185058594E-3,-7.882009277E0,-3.426374817E-1,7.889456402E0
5.903703833E0,1.191522217E-1,-1.000833755E1,-2.314187622E-1,1.001172176E1
5.913729833E0,1.471440125E-1,-1.270932083E1,-2.724334717E-1,1.271309197E1
5.923755833E0,1.743873596E-1,-1.571072937E1,2.812651062E-1,1.571421453E1
5.933781833E0,2.803669739E-1,-1.959410385E1,2.287393341E0,1.972915811E1
5.943807833E0,4.769082642E-1,-2.419044571E1,5.841752014E0,2.489038312E1
5.953833833E0,3.972738647E-1,-2.630749329E1,4.851411438E0,2.675403189E1
5.963859833E0,4.234693909E-1,-2.740531036E1,3.322341156E0,2.760920704E1
5.973884833E0,9.451345825E-1,-2.659624283E1,3.510350189E0,2.684354616E1
5.983910833E0,1.147962799E0,-2.020633072E1,3.343596954E0,2.051324597E1
5.993936833E0,1.092877350E0,-1.499925888E1,2.080822906E0,1.518229139E1
6.003962833E0,8.729846191E-1,-1.223735229E1,4.932243347E-1,1.227836160E1
6.013988833E0,5.589376831E-1,-1.032597702E1,-4.231700134E-1,1.034974809E1
6.024014833E0,1.565744019E-1,-8.926088104E0,-8.502319336E-1,8.967856975E0
6.034040833E0,8.622070312E-2,-7.586074677E0,-9.687854004E-1,7.648170249E0
6.044066833E0,-1.209484863E-1,-6.296656036E0,-1.458267517E0,6.464445060E0
6.054092833E0,-9.556127930E-1,-4.758155365E0,-4.580175476E0,6.673173584E0
6.064118833E0,-1.977986755E0,-3.802243195E0,-6.801256714E0,8.039065729E0
6.074144833E0,-1.543590088E0,-4.117188263E0,-3.005749512E0,5.326203120E0
6.084170833E0,-1.084644470E0,-4.688400421E0,-6.035449219E-1,4.849929753E0
6.094196833E0,-1.038240967E0,-5.042713623E0,1.362167358E-2,5.148503718E0
6.104222833E0,-1.127754822E0,-5.669609985E0,1.480421448E-1,5.782579425E0
6.114248833E0,-1.139580231E0,-6.777605896E0,3.718267822E-1,6.882793033E0
6.124273833E0,-8.881031799E-1,-8.060887299E0,9.063652039E-1,8.160154973E0
6.134299833E0,-5.289999390E-1,-8.976533203E0,1.457070007E0,9.109393080E0
6.144325833E0,1.451980591E-2,-9.322164459E0,1.562450867E0,9.452206819E0
6.154351833E0,6.750961304E-1,-9.411828003E0,1.546284485E0,9.561864716E0
6.164377833E0,1.518891449E0,-9.326804810E0,1.698966980E0,9.601187843E0
6.174403833E0,2.450554047E0,-9.059760132E0,2.048939209E0,9.606384370E0
6.184429833E0,3.106490021E0,-8.799301758E0,2.383942566E0,9.631260241E0
6.194455833E0,3.097508698E0,-9.001980286E0,2.601140900E0,9.868948433E0
6.204481833E0,2.813100128E0,-9.725425873E0,2.386786652E0,1.040164368E1
6.214507833E0,2.523602142E0,-1.061652283E1,1.982776794E0,1.109101116E1
6.224533833E0,2.274669800E0,-1.154893387E1,1.796114960E0,1.190705779E1
6.234559833E0,2.314636688E0,-1.240694962E1,1.698218536E0,1.273475119E1
6.244585833E0,2.500699768E0,-1.318563034E1,1.551373901E0,1.351003730E1
6.254611833E0,2.742297363E0,-1.376881760E1,1.406175842E0,1.410949550E1
6.264637833E0,2.986140289E0,-1.363649277E1,1.298250275E0,1.401985815E1
6.274662833E0,3.110232239E0,-1.262579453E1,1.912872162E0,1.314318500E1
6.284688833E0,3.010988617E0,-1.105286545E1,3.600911865E0,1.200826604E1
6.294714833E0,2.873574371E0,-9.271569672E0,2.122885437E0,9.936099658E0
6.304740833E0,2.632126465E0,-8.392148438E0,1.930984497E-2,8.795261110E0
6.314766833E0,2.284100189E0,-7.894283752E0,-6.505471802E-1,8.243788041E0
6.324792833E0,1.944606171E0,-7.301666107E0,-9.413923645E-1,7.614593928E0
6.334818833E0,1.496138763E0,-6.668183441E0,-1.043180695E0,6.913127192E0
6.344844833E0,9.472302246E-1,-6.293662262E0,-9.006770325E-1,6.427958376E0
6.354870833E0,2.300715637E-1,-6.430627441E0,-1.172362061E0,6.540667781E0
6.364896833E0,-8.149053955E-1,-7.495962067E0,-2.173180847E0,7.847052511E0
6.374922833E0,-1.692230988E0,-8.881630554E0,-2.803819427E0,9.466171898E0
6.384948833E0,-2.095043335E0,-1.011177246E1,-2.715054016E0,1.067748412E1
6.394974833E0,-2.244133301E0,-1.128054199E1,-2.127376099E0,1.169668718E1
6.405000833E0,-2.220033417E0,-1.231099915E1,-1.231638794E0,1.257005101E1
6.415025833E0,-2.340233459E0,-1.310973816E1,-4.945715332E-1,1.332615955E1
6.425051833E0,-2.495310974E0,-1.312201263E1,-7.634124756E-3,1.335716477E1
6.435077833E0,-2.548450470E0,-1.226833786E1,3.427871704E-1,1.253491989E1
6.445103833E0,-2.385738831E0,-1.089284821E1,6.968009949E-1,1.117279837E1
6.455129833E0,-2.137405243E0,-9.548493805E0,1.003662872E0,9.836136146E0
6.465155833E0,-1.735041962E0,-8.244705048E0,1.156345367E0,8.504273428E0
6.475181833E0,-1.292113037E0,-6.964267731E0,1.080752563E0,7.165096456E0
6.485207833E0,-9.803114319E-1,-5.828280029E0,7.866142273E-1,5.962266393E0
6.495233833E0,-7.887098694E-1,-5.083129578E0,5.959107971E-1,5.178356809E0
6.505259833E0,-6.222560120E-1,-4.774920502E0,6.981481934E-1,4.865642737E0
6.515285833E0,-6.462062073E-1,-5.023104401E0,8.544232178E-1,5.136068469E0
6.525311833E0,-7.126679993E-1,-5.652545471E0,9.523196411E-1,5.776337826E0
6.535337833E0,-6.523434448E-1,-6.371051331E0,1.015188904E0,6.484323830E0
6.545363833E0,-5.879772949E-1,-7.236252136E0,1.057101746E0,7.336656349E0
6.555388833E0,-4.846920776E-1,-7.973169708E0,1.195114746E0,8.076797686E0
6.565414833E0,-3.849993896E-1,-8.713829498E0,1.567689972E0,8.862093483E0
6.575440833E0,-3.122506714E-1,-9.363478546E0,2.040706329E0,9.588363431E0
6.585466833E0,-2.670446777E-1,-9.921368408E0,2.036065979E0,1.013165478E1
6.595492833E0,6.436614990E-3,-1.001701950E1,1.814676361E0,1.018006736E1
6.605518833E0,4.998106384E-1,-9.562714233E0,1.594035187E0,9.707536369E0
6.615544833E0,7.707472229E-1,-8.936865692E0,4.333488464E-1,8.980501707E0
6.625570833E0,6.921606445E-1,-8.093669128E0,-1.743873596E0,8.308288719E0
6.635596833E0,4.123924255E-1,-7.167994080E0,-2.579436035E0,7.629134741E0
6.645622833E0,2.731819153E-1,-6.514004059E0,-1.212478638E0,6.631514283E0
6.655648417E0,3.944297791E-1,-6.782246246E0,1.369053040E0,6.930277427E0
6.665674417E0,-3.592529297E-3,-8.016130371E0,1.640588379E-1,8.017809822E0
6.675700417E0,-6.926097107E-1,-9.760303345E0,-5.463937683E0,1.120704442E1
6.685726417E0,-9.939331055E-2,-1.126826752E1,-6.587800598E-1,1.128794592E1
6.695751417E0,6.712042236E-1,-1.235590576E1,2.579136658E0,1.264005017E1
6.705777417E0,7.708969116E-1,-1.451531525E1,-1.988914032E0,1.467121119E1
6.715803417E0,1.407672729E0,-1.631966309E1,-2.897075500E0,1.663448202E1
6.725829417E0,2.698438568E0,-1.643207932E1,1.945953369E-2,1.665218244E1
6.735855417E0,3.489992523E0,-1.764336044E1,-1.653012543E0,1.806102616E1
6.745881417E0,4.474046173E0,-1.855556351E1,-3.754791870E0,1.945313569E1
6.755907417E0,5.513334961E0,-1.903905807E1,-4.211043091E0,2.026364919E1
6.765933417E0,5.964347076E0,-1.940055634E1,-2.779420166E0,2.048609769E1
6.775959417E0,5.198689270E0,-2.009571075E1,4.191284180E-2,2.075730516E1
6.785985417E0,3.889811096E0,-2.260524216E1,1.863624573E0,2.301305499E1
6.796011417E0,2.225422211E0,-2.651077057E1,3.171155548E0,2.679234383E1
6.806037417E0,5.912704468E-1,-3.164868622E1,4.392765198E0,3.195755507E1
6.816063417E0,-9.389973450E-1,-3.701113495E1,5.231920166E0,3.739089214E1
6.826089417E0,-2.361189880E0,-4.119373718E1,4.672383728E0,4.152505714E1
6.836114417E0,-3.781586151E0,-4.241804123E1,3.035986633E0,4.269435361E1
6.846140417E0,-4.404590607E0,-3.841207169E1,1.685195618E0,3.870048519E1
6.856166417E0,-3.109932861E0,-2.969884094E1,1.396895142E0,2.989388151E1
6.866192417E0,-2.115401001E0,-2.300880295E1,8.973838806E-1,2.312326171E1
6.876218417E0,-1.810335388E0,-1.851035751E1,4.507127380E-1,1.860413372E1
6.886244417E0,-1.520987091E0,-1.479553253E1,1.839674377E-1,1.487464382E1
6.896270417E0,-1.522034912E0,-1.219319412E1,-1.565744019E-1,1.228881966E1
6.906296417E0,-1.986219635E0,-1.150402725E1,6.474037170E-1,1.169217016E1
6.916322417E0,-2.292782135E0,-1.094883179E1,1.009051666E0,1.123173863E1
6.926348417E0,-2.190544739E0,-9.452543335E0,5.953120422E-1,9.721288916E0
6.936374417E0,-2.422412567E0,-7.231761475E0,-8.140072632E-1,7.670010723E0
6.946400417E0,-3.107388153E0,-5.236261139E0,-1.494192810E0,6.269521832E0
6.956426417E0,-3.941453705E0,-4.856800232E0,4.399351501E-1,6.270335616E0
6.966452417E0,-4.784650269E0,-2.701731720E0,-3.965104523E0,6.776008143E0
6.976477417E0,-5.951024780E0,-6.730004883E-1,-1.023825943E1,1.186126392E1
6.986503417E0,-5.864055634E0,-1.355431366E0,-1.916464691E0,6.316421421E0
6.996529417E0,-5.683680725E0,-1.402433624E0,2.144739990E0,6.234657672E0
7.006555417E0,-5.789959717E0,-5.804928589E-1,1.879192200E0,6.114897285E0
7.016581417E0,-5.897286530E0,-1.017883301E-2,2.254012756E0,6.313371962E0
7.026607417E0,-5.487887878E0,5.596861267E-1,1.876497803E0,5.826783498E0
7.036633417E0,-4.712500305E0,1.145717468E0,1.315913544E0,5.025132446E0
7.046659417E0,-3.909120941E0,1.715432739E0,9.967771912E-1,4.383777000E0
7.056685417E0,-3.188818817E0,1.938319244E0,7.176077271E-1,3.800079972E0
7.066711417E0,-2.708018646E0,1.948498077E0,4.622387695E-1,3.368037177E0
7.076737417E0,-2.476001129E0,1.831291809E0,1.999841309E-1,3.086131062E0
7.086763417E0,-2.272274780E0,1.567839661E0,-1.423539734E-1,2.764347759E0
7.096789417E0,-1.901795197E0,1.678609314E0,-3.785478058E0,4.556796937E0
7.106815417E0,-5.357359314E-1,3.367247772E0,-1.612866028E1,1.648511610E1
7.116840417E0,-2.215393066E-2,2.176923065E0,-8.915909271E0,9.177849583E0
7.126866417E0,-2.832110596E-1,7.029382324E-1,-1.034349060E-1,7.648721741E-1
7.136892417E0,-6.885681152E-3,7.518864441E-1,3.742218018E-1,8.398943947E-1
7.146918417E0,1.691482544E-1,8.273295593E-1,8.054750061E-1,1.166994138E0
7.156944417E0,2.992277527E-1,9.833052063E-1,1.116079102E0,1.517253749E0
7.166970417E0,2.941383362E-1,1.149908752E0,1.437011719E0,1.863816026E0
7.176996417E0,6.346801758E-2,1.416354675E0,2.239043884E0,2.650170989E0
7.187022417E0,-4.864883423E-1,1.992656250E0,3.320245514E0,3.902740077E0
7.197048417E0,-9.934840393E-1,1.862876129E0,1.847158813E0,2.805229704E0
7.207074417E0,-1.194965057E0,1.215622101E0,6.298901367E-1,1.817261722E0
7.217100417E0,-1.258283386E0,7.336244202E-1,8.652008057E-2,1.459098213E0
7.227126417E0,-1.202898560E0,4.216731262E-1,-1.118174744E-1,1.279560986E0
7.237152417E0,-1.122515717E0,2.577639771E-1,-1.592687988E-1,1.162690996E0
7.247178417E0,-9.975256348E-1,1.797761536E-1,-1.752854919E-1,1.028640783E0
7.257203417E0,-8.716374207E-1,1.222956848E-1,-1.733395386E-1,8.970811687E-1
7.267229417E0,-8.071215820E-1,1.231938171E-1,-1.526824951E-1,8.306226033E-1
7.277255417E0,-7.021897888E-1,2.339634705E-1,-1.077758789E-2,7.402199413E-1
7.287281417E0,-6.259982300E-1,3.766168213E-1,1.666035461E-1,7.493135229E-1
7.297307417E0,-5.957611084E-1,3.966751099E-1,3.150947571E-1,7.820275871E-1
7.307333417E0,-6.779402161E-1,2.481838989E-1,4.315525818E-1,8.410920372E-1
7.317359417E0,-8.875044250E-1,-5.613327026E-2,4.340972900E-1,9.895733958E-1
7.327385417E0,-1.160536652E0,-5.411247253E-1,1.086740112E-1,1.285095844E0
7.337411417E0,-1.493444366E0,-1.446292419E0,-7.568261719E-1,2.212447444E0
7.347437417E0,-1.446442108E0,-2.371817780E0,-5.852828979E-1,2.839061539E0
7.357463417E0,-1.020727386E0,-3.060685272E0,9.084608459E-1,3.351862145E0
7.367489417E0,-2.177671509E0,-6.174210663E0,1.098864899E0,6.638571727E0
7.377515417E0,-4.583318939E0,-1.253732849E1,1.193168793E0,1.340205469E1
7.387541417E0,-5.717510376E0,-2.471001526E1,1.619781647E0,2.541453268E1
7.397566417E0,-4.157155151E0,-4.528143677E1,3.023861847E0,4.557229636E1
7.407592417E0,4.080514526E-1,-7.273928787E1,5.943989410E0,7.298288509E1
7.417618417E0,2.658621368E0,-8.977221771E1,5.825735321E0,9.000032518E1
7.427644417E0,6.550378418E0,-8.621142242E1,4.723277893E0,8.658883397E1
7.437670417E0,9.632169800E0,-6.890007156E1,5.788911896E0,6.981052970E1
7.447696417E0,8.071066132E0,-4.209201920E1,-3.346740417E0,4.298931100E1
7.457722417E0,6.553521881E0,-2.937880646E1,-7.893086243E-1,3.011122591E1
7.467748417E0,3.736230469E0,-2.402084839E1,9.927355957E-1,2.432994245E1
7.477774417E0,2.644400940E0,-1.741119324E1,-1.757046204E0,1.769829703E1
7.487800417E0,2.728346375E1,-4.193080444E0,-4.934847931E1,5.654415733E1
7.497826417E0,2.067590424E1,-4.130061493E0,-1.540117310E1,2.611027684E1
7.507852417E0,3.190615082E0,-8.600215759E0,4.199816437E0,1.008871616E1
7.517878417E0,6.655010834E0,-5.901777191E0,-2.936743011E0,9.367208908E0
7.527903417E0,5.446274414E0,-4.584217072E0,-3.300636292E-1,7.126422184E0
7.537929417E0,5.534441071E0,-3.575913849E0,-3.451821899E-1,6.598207981E0
7.547955417E0,4.900958405E0,-3.178340607E0,2.938239899E0,6.538692224E0
7.557981417E0,2.008223877E0,-2.884202271E0,6.589447174E0,7.468092122E0
7.568007417E0,-1.361269226E0,-3.639082489E0,5.883664856E0,7.050779206E0
7.578033417E0,-2.496658173E0,-3.329825592E0,3.385809174E0,5.365141588E0
7.588059417E0,-2.258952484E0,-2.200124817E0,1.351988525E0,3.430931143E0
7.598085417E0,-1.785037994E0,-7.628137207E-1,7.458988953E-1,2.079569805E0
7.608111417E0,-1.182241516E0,5.986051941E-1,1.394200745E0,1.923491330E0
7.618137417E0,-5.342390442E-1,1.351240082E0,1.942510529E0,2.425821153E0
7.628163417E0,-2.829116821E-2,1.651515656E0,2.197580109E0,2.749120347E0
7.638189417E0,1.215472412E-1,1.691781921E0,2.366129608E0,2.911265897E0
7.648215417E0,-8.023315430E-2,1.528471527E0,2.614762573E0,3.029793043E0
7.658240917E0,-3.534150696E-1,1.345402222E0,2.904709625E0,3.220612885E0
7.668266917E0,-5.882766724E-1,9.020242310E-1,3.050955505E0,3.235436084E0
7.678292917E0,-5.742059326E-1,-6.511459351E-2,2.858006744E0,2.915845489E0
7.688318917E0,-4.802014160E-1,-1.136586456E0,2.334694977E0,2.640686049E0
7.698344917E0,-4.577481079E-1,-2.079176331E0,1.869163055E0,2.833068667E0
7.708370917E0,-5.113366699E-1,-3.016676788E0,1.606159973E0,3.455655350E0
7.718396917E0,-4.056564331E-1,-4.110003204E0,1.441203003E0,4.374214167E0
7.728422917E0,1.715432739E-1,-5.627996521E0,1.191671906E0,5.755332646E0
7.738448917E0,8.619076538E-1,-8.387508087E0,9.877958679E-1,8.489341399E0
7.748474917E0,1.669178925E0,-1.319685699E1,1.762734375E0,1.341828697E1
7.758500917E0,3.321892090E0,-2.042412781E1,3.044369202E0,2.091526112E1
7.768526917E0,6.129154358E0,-2.844654510E1,1.770069122E0,2.915314059E1
7.778552917E0,8.226143646E0,-3.457719635E1,7.985893250E-1,3.555122630E1
7.788578917E0,7.673193512E0,-3.737218414E1,7.985893250E-1,3.816013353E1
7.798603917E0,5.298082581E0,-3.022065582E1,1.605561218E0,3.072353404E1
7.808629917E0,4.662953339E0,-2.036694672E1,1.528321838E-1,2.089447319E1
7.818655917E0,3.832480316E0,-1.562840057E1,-6.330335999E-1,1.610389833E1
7.828681917E0,2.971171417E0,-1.151136200E1,-5.406756592E-1,1.190090941E1
7.838707917E0,2.165247345E0,-8.550818481E0,-5.216651917E-1,8.836114946E0
7.848733917E0,1.167272644E0,-5.799240417E0,1.248254242E0,6.045812890E0
7.858759917E0,-1.858535156E0,-1.897304535E0,-7.658673706E0,8.106121166E0
7.868785917E0,-5.659131775E0,-1.806892548E0,-2.351325394E1,2.425208741E1
7.878811917E0,-3.316802673E0,-3.274889832E0,-8.342302094E0,9.556154436E0
7.888837917E0,-6.062393188E-1,-4.706512756E0,5.852828979E-2,4.745757474E0
7.898863917E0,-2.309696960E-1,-5.352120209E0,-1.854643250E-1,5.360311068E0
7.908889917E0,7.484436035E-4,-5.676795044E0,2.872526550E-1,5.684058112E0
7.918915917E0,3.797602844E-1,-6.491251373E0,8.668473816E-1,6.559877030E0
7.928940917E0,9.768685913E-1,-7.828869781E0,2.037413177E0,8.148406394E0
7.938966917E0,1.271905060E0,-9.053173828E0,1.677262115E0,9.294670895E0
7.948992917E0,1.503024445E0,-9.976004791E0,6.506968689E-1,1.010955788E1
7.959018917E0,1.870360565E0,-1.074166260E1,2.293231201E-1,1.090569361E1
7.969044917E0,2.334545288E0,-1.129072083E1,1.821711731E-1,1.153098716E1
7.979070917E0,2.753524017E0,-1.157438095E1,3.043171692E-1,1.190129396E1
7.989096917E0,3.178041229E0,-1.156689651E1,5.370831299E-1,1.200756009E1
7.999122917E0,3.602109375E0,-1.137499557E1,7.899073792E-1,1.195782881E1
8.009148917E0,4.095633087E0,-1.114417557E1,1.156195679E0,1.192910927E1
8.019174917E0,4.513264618E0,-1.093012070E1,1.422491913E0,1.191052388E1
8.029200917E0,4.666396179E0,-1.056023987E1,1.582060089E0,1.165318984E1
8.039226917E0,4.659510498E0,-1.006282425E1,1.665586395E0,1.121363670E1
8.049252917E0,4.600084076E0,-9.545799408E0,1.717378693E0,1.073463783E1
8.059277917E0,4.588857422E0,-8.998836823E0,1.839524689E0,1.026744991E1
8.069303917E0,4.625082092E0,-8.388855286E0,1.922302551E0,9.770339015E0
8.079329917E0,4.606969757E0,-7.803273010E0,1.885329437E0,9.255793164E0
8.089355917E0,4.511318665E0,-7.364685059E0,1.844015350E0,8.831249896E0
8.099381917E0,4.450694733E0,-7.088659058E0,1.837878113E0,8.569455455E0
8.109407917E0,4.231251068E0,-7.116501160E0,1.696272583E0,8.451355810E0
8.119433917E0,4.021537170E0,-7.416327667E0,1.202748871E0,8.521812139E0
8.129459917E0,4.076173553E0,-7.942034454E0,5.203179932E-1,8.942138051E0
8.139485917E0,4.167633362E0,-8.704399109E0,3.532653809E-2,9.650750212E0
8.149511917E0,3.981570282E0,-9.513766022E0,-1.547781372E-1,1.031448506E1
8.159537917E0,3.812571716E0,-1.021939865E1,-7.020401001E-2,1.090764596E1
8.169563917E0,3.620221710E0,-1.077429474E1,7.723937988E-2,1.136650334E1
8.179589917E0,3.342698822E0,-1.110570557E1,5.493576050E-2,1.159798903E1
8.189614917E0,2.970572662E0,-1.120809265E1,-7.634124756E-2,1.159532107E1
8.199640917E0,2.503244476E0,-1.095152618E1,-2.522254944E-1,1.123680454E1
8.209666917E0,1.917362823E0,-1.035726196E1,-6.001020813E-1,1.055032123E1
8.219692917E0,1.174308014E0,-9.851613464E0,-1.479074249E0,1.003099934E1
8.229718917E0,1.422042847E-1,-9.632918243E0,-3.234922943E0,1.016258148E1
8.239744917E0,-6.593788147E-1,-9.304052124E0,-4.544399872E0,1.037553548E1
8.249770917E0,-5.420228577E-1,-8.553063812E0,-3.814517670E0,9.380790713E0
8.259796917E0,5.119354248E-2,-7.813152466E0,-1.975591736E0,8.059214288E0
8.269822917E0,3.667373657E-1,-7.404053192E0,-6.451583862E-1,7.441151074E0
8.279848917E0,4.508624268E-1,-7.217241669E0,5.038522339E-1,7.248842756E0
8.289874917E0,4.400848389E-1,-7.300767975E0,1.849404144E0,7.544215226E0
8.299900917E0,2.698887634E-1,-7.612569580E0,2.510130157E0,8.020274868E0
8.309926917E0,-6.885681152E-3,-8.124804382E0,2.186203766E0,8.413797036E0
8.319951917E0,-2.264790344E-1,-8.401429138E0,1.620829468E0,8.559345330E0
8.329977917E0,-3.402424622E-1,-8.313262482E0,1.046773224E0,8.385811362E0
8.340003917E0,-4.216731262E-1,-8.141569519E0,2.528242493E-1,8.156401324E0
8.350029917E0,-6.228547668E-1,-7.858208771E0,-6.321354675E-1,7.908159609E0
8.360055917E0,-9.174421692E-1,-7.505841522E0,-1.209933929E0,7.657891172E0
8.370081917E0,-1.161434784E0,-7.206613770E0,-1.488504639E0,7.449822739E0
8.380107917E0,-1.392254791E0,-6.968009949E0,-1.800006866E0,7.330181496E0
8.390133917E0,-1.440753937E0,-6.711443481E0,-1.914069672E0,7.126212754E0
8.400159917E0,-1.117875366E0,-6.356980591E0,-1.764979706E0,6.691487199E0
8.410185917E0,-7.307803345E-1,-6.573580170E0,-1.840123444E0,6.865278613E0
8.420211917E0,-2.812651062E-1,-7.546556854E0,-1.409768372E0,7.682257303E0
8.430237917E0,6.089337158E-1,-8.575816498E0,-6.900650024E-2,8.597685198E0
8.440262917E0,1.932331696E0,-8.988358612E0,5.306465149E-1,9.209021775E0
8.450288917E0,3.232378235E0,-9.345515900E0,-5.246589661E-1,9.902636190E0
8.460314917E0,4.590803375E0,-1.065095123E1,-1.276545410E0,1.166823920E1
8.470340917E0,6.050717468E0,-1.311288162E1,-5.848338318E-1,1.445340365E1
8.480366917E0,7.592660980E0,-1.545251633E1,1.637594604E-1,1.721788543E1
8.490392917E0,9.154513092E0,-1.587299194E1,-2.404599609E0,1.848077602E1
8.500418917E0,1.102607117E1,-1.560280380E1,-4.015699310E0,1.952300112E1
8.510444917E0,1.265393600E1,-1.565684143E1,-3.327280884E0,2.040415590E1
8.520470917E0,1.341764786E1,-1.612387024E1,-2.015408936E0,2.107307141E1
8.530496917E0,1.286589523E1,-1.675046722E1,-1.424737244E0,2.116930062E1
8.540522917E0,1.253613098E1,-1.849763397E1,-7.349716187E-2,2.234552403E1
8.550548917E0,1.277114227E1,-2.099069962E1,1.637295227E0,2.462503362E1
8.560573917E0,1.299043625E1,-2.373838577E1,2.218087463E0,2.715110136E1
8.570599917E0,1.252520370E1,-2.665057983E1,2.021396484E0,2.951643910E1
8.580625917E0,1.149938690E1,-2.995630554E1,2.404599609E0,3.217760464E1
8.590651917E0,1.039588165E1,-3.293121918E1,2.951562195E0,3.465907199E1
8.600677917E0,9.318721619E0,-3.486639496E1,2.866389313E0,3.620387076E1
8.610703917E0,8.230783997E0,-3.528746933E1,1.553768921E0,3.626796789E1
8.620729917E0,7.141648865E0,-3.393607956E1,7.855664063E-1,3.468829426E1
8.630755917E0,5.984854431E0,-2.977114059E1,3.992198181E-1,3.036937061E1
8.640781917E0,5.051096191E0,-2.375844406E1,6.039939880E-1,2.429695548E1
8.650807917E0,4.271667023E0,-1.928933762E1,1.266516266E0,1.979721567E1
8.660833542E0,3.657045135E0,-1.598286346E1,1.839674377E0,1.649879709E1
8.670859542E0,2.804268494E0,-1.367376526E1,1.790426788E0,1.407271851E1
8.680885542E0,2.183659058E0,-1.225576401E1,1.278341675E0,1.251424291E1
8.690910542E0,1.662891998E0,-1.039752823E1,1.252295837E0,1.060386948E1
8.700936542E0,1.345851288E0,-7.488178253E0,1.508712616E0,7.756309883E0
8.710962542E0,3.165916443E-1,-4.734953613E0,-8.232879639E-2,4.746239988E0
8.720988542E0,-1.235530701E0,-4.483326874E0,-3.468736725E0,5.801628257E0
8.731014542E0,-2.859952698E0,-3.523373108E0,-8.530311127E0,9.662282102E0
8.741040542E0,-4.502487030E0,-2.536774750E0,-1.108834167E1,1.223351694E1
8.751066542E0,-4.403842163E0,-3.459605713E0,-9.696835327E-1,5.683571381E0
8.761092542E0,-5.153034210E0,-3.399580536E0,2.637066193E0,6.713049046E0
8.771118542E0,-7.241191864E0,-3.042572937E0,3.282973022E0,8.512932606E0
8.781144542E0,-8.607999573E0,-2.858156433E0,4.133803711E0,9.967700234E0
8.791170542E0,-8.528814240E0,-2.405048676E0,3.625460815E0,9.574387583E0
8.801196542E0,-8.192463684E0,-1.876048737E0,3.060236206E0,8.944331485E0
8.811221542E0,-8.201894073E0,-1.705253906E0,2.252964935E0,8.674952927E0
8.821247542E0,-7.987689514E0,-1.743723907E0,1.266366577E0,8.273296873E0
8.831273542E0,-7.695347443E0,-1.426084442E0,-2.059866486E0,8.092906711E0
8.841299542E0,-7.271728363E0,-7.364685059E-1,-6.206094360E0,9.588327615E0
8.851325542E0,-6.120771790E0,-1.230740662E0,-3.113525391E0,6.976575824E0
8.861351542E0,-4.572541351E0,-1.218466187E0,-1.666783905E0,5.017067156E0
8.871377542E0,-2.637814636E0,-9.785151672E-1,-7.714956665E-1,2.917321297E0
8.881403542E0,-1.012344818E0,-3.505709839E-1,-3.680845642E-1,1.132796668E0
8.891429542E0,1.139131165E-1,2.755769348E-1,4.565505981E-2,3.016674155E-1
8.901455542E0,7.827223206E-1,9.714797974E-1,7.438032532E-1,1.452470484E0
8.911481542E0,1.223405914E0,1.836979980E0,-2.130070496E-1,2.217338378E0
8.921507542E0,2.847528534E0,3.707340546E0,-7.993677063E0,9.260219525E0
8.931533542E0,4.299209747E0,4.649481354E0,-1.107696533E1,1.275931198E1
8.941558542E0,2.585872650E0,2.888842621E0,-2.883004761E0,4.831548975E0
8.951584542E0,1.313817902E0,1.943708038E0,9.785151672E-1,2.541969777E0
8.961610542E0,1.035845947E0,1.895807648E0,1.653910675E0,2.720750629E0
8.971636542E0,6.761439514E-1,1.810634766E0,1.736987915E0,2.598594989E0
8.981662542E0,-2.230361938E-2,1.667532349E0,6.668632507E-1,1.796070205E0
8.991688542E0,-8.295748901E-1,1.209634552E0,-8.987310791E-1,1.720211557E0
9.001714542E0,-1.277742920E0,5.987548828E-1,-1.059945831E0,1.764828474E0
9.011740542E0,-1.301094360E0,4.445755005E-2,3.589535522E-1,1.350433509E0
9.021766542E0,-1.217867432E0,-7.634124756E-2,1.120120697E0,1.656411616E0
9.031792542E0,-1.161434784E0,5.987548828E-2,9.657916260E-1,1.511710718E0
9.041818542E0,-1.301842804E0,-1.242416382E-2,6.267466736E-1,1.444908453E0
9.051844542E0,-1.514550476E0,-3.353027344E-1,5.013075256E-1,1.630214803E0
9.061869542E0,-1.704655151E0,-8.873547363E-1,3.019221497E-1,1.945354620E0
9.071895542E0,-2.085762634E0,-1.519789581E0,2.381547546E-1,2.591695164E0
9.081921542E0,-1.861828308E0,-1.855541382E0,5.038522339E-1,2.676435230E0
9.091947542E0,-1.288071442E0,-2.010319519E0,9.788145447E-1,2.580424485E0
9.101973542E0,-1.355131989E0,-3.428470459E0,1.655108185E0,4.041061185E0
9.111999542E0,-1.850451965E0,-6.762337646E0,1.535506897E0,7.177127862E0
9.122025542E0,-2.258204041E0,-1.529594193E1,1.416953430E0,1.552652833E1
9.132051542E0,-2.335742798E0,-3.037887680E1,1.025966492E0,3.048580747E1
9.142077542E0,-3.501219177E-1,-5.255226700E1,2.221979370E0,5.260038540E1
9.152103542E0,6.990762634E0,-7.312832886E1,1.472487946E0,7.347646878E1
9.162129542E0,1.430590073E1,-8.544232178E1,1.534159698E0,8.664526988E1
9.172155542E0,1.747481094E1,-7.529177994E1,1.873653717E0,7.731579219E1
9.182181542E0,1.691003540E1,-4.972883835E1,-3.809727631E0,5.266327644E1
9.192206542E0,1.334549789E1,-3.382650742E1,4.914280701E-1,3.636724377E1
9.202232542E0,8.818012848E0,-2.387445282E1,-2.366578674E-1,2.545197153E1
9.212258542E0,6.602170715E0,-1.639076523E1,1.140777740E0,1.770726452E1
9.222284542E0,5.263654175E0,-1.111124405E1,6.240822144E0,1.378817104E1
9.232310542E0,8.979227600E0,-4.371210022E0,-4.203408966E0,1.083525045E1
9.242336542E0,2.192101501E1,8.043523407E0,-4.479824158E1,5.051842848E1
9.252362542E0,6.745123444E0,-1.106049957E0,-8.873697052E0,1.120100603E1
9.262388542E0,2.112257538E0,-3.816014557E0,6.047424316E-2,4.362024317E0
9.272414542E0,3.053200836E0,-2.591710510E0,-2.867886200E0,4.925826831E0
9.282440542E0,2.288291473E0,-3.139271851E0,-1.149160309E0,4.051157246E0
9.292466542E0,2.349813538E0,-3.026705933E0,-1.211281128E0,4.018678195E0
9.302491542E0,2.668051758E0,-2.604284363E0,1.899549866E-1,3.733213110E0
9.312517542E0,3.111579437E0,-2.171234894E0,2.224973145E0,4.398487587E0
9.322543542E0,3.736829224E0,-1.765877838E0,5.984105988E0,7.272670875E0
9.332569542E0,4.507127380E0,-1.127305756E0,7.421417084E0,8.755709396E0
9.342595542E0,4.098776550E0,-8.574169922E-1,6.494245148E0,7.727247450E0
9.352621542E0,3.631747742E0,-4.568499756E-1,5.813011780E0,6.869454819E0
9.362647542E0,2.932701416E0,1.796264648E-3,5.045857086E0,5.836215774E0
9.372673542E0,2.163451080E0,4.358935547E-1,4.598886566E0,5.101007882E0
9.382699542E0,1.342558136E0,4.490661621E-1,4.273014221E0,4.501419032E0
9.392725542E0,5.382806396E-1,8.083190918E-2,3.829037476E0,3.867532525E0
9.402751542E0,-7.035369873E-3,-4.376898193E-1,3.417842560E0,3.445761112E0
9.412777542E0,-3.441343689E-1,-1.530567169E0,2.865191803E0,3.266556044E0
9.422802542E0,-1.520837402E-1,-3.011138306E0,2.287692719E0,3.784656039E0
9.432828542E0,2.409988403E-1,-4.693789215E0,2.234852600E0,5.204258235E0
9.442854542E0,9.177415466E-1,-6.890171814E0,2.406096497E0,7.355679270E0
9.452880542E0,1.797162781E0,-1.007105713E1,2.032323761E0,1.043006834E1
9.462906542E0,3.603306885E0,-1.474927872E1,1.274898834E0,1.523648287E1
9.472932542E0,6.703210602E0,-2.050151688E1,3.155438232E-1,2.157185190E1
9.482958542E0,9.432934113E0,-2.606829071E1,-5.668711853E-1,2.772827743E1
9.492984542E0,9.865235138E0,-3.137310928E1,1.742376709E-1,3.288807093E1
9.503010542E0,7.004983063E0,-3.251718018E1,-8.553213501E-1,3.327413964E1
9.513036542E0,4.610113220E0,-2.421334808E1,-3.669768677E0,2.492000344E1
9.523062542E0,3.529809723E0,-1.684492081E1,-3.583547974E0,1.757989561E1
9.533088542E0,2.627336426E0,-1.217837494E1,-3.483406219E0,1.293637630E1
9.543113542E0,1.955982513E0,-8.439749451E0,-3.992048492E0,9.538956418E0
9.553139542E0,1.539099426E0,-4.875062256E0,-2.716401215E0,5.789118638E0
9.563165542E0,1.041534119E0,-2.509830780E0,2.191143494E0,3.490723947E0
9.573191542E0,5.207670593E-1,-2.620750122E0,8.229885864E-1,2.795861181E0
9.583217542E0,5.010081482E-1,-2.864593048E0,-5.662424927E0,6.365528929E0
9.593243542E0,1.196461945E0,-2.775228882E0,-1.078207855E1,1.119761736E1
9.603269542E0,2.225422211E0,-4.150718536E0,-5.482648773E0,7.227752483E0
9.613295542E0,2.705324249E0,-6.443949738E0,-7.694000244E-1,7.031020119E0
9.623321542E0,2.878963165E0,-7.697443085E0,-6.870712280E-1,8.246885826E0
9.633347542E0,2.985840912E0,-8.318800964E0,-1.075663147E0,8.903636709E0
9.643373542E0,3.437152405E0,-9.064849548E0,-1.087937622E0,9.755466276E0
9.653399542E0,3.980672150E0,-9.986483002E0,-6.626719666E-1,1.077101331E1
9.663424333E0,4.443060608E0,-1.082384171E1,-1.404080200E-1,1.170111325E1
9.673450333E0,4.760999451E0,-1.137993530E1,1.661544800E-1,1.233684119E1
9.683476333E0,4.954846344E0,-1.159803177E1,2.957849121E-1,1.261555912E1
9.693502333E0,4.968767395E0,-1.122650436E1,3.138972473E-1,1.228094382E1
9.703528333E0,4.629872131E0,-1.039827667E1,5.281018066E-1,1.139468144E1
9.713554333E0,4.312681732E0,-9.624984741E0,1.058149567E0,1.059996394E1
9.723580333E0,4.411775665E0,-8.820707245E0,1.668430481E0,1.000261471E1
9.733606333E0,4.791086884E0,-7.994724884E0,2.676883392E0,9.697208062E0
9.743632333E0,5.047353973E0,-7.507637787E0,3.516337738E0,9.705928001E0
9.753658333E0,5.276377716E0,-7.346872101E0,3.686982880E0,9.767831603E0
9.763684333E0,5.263953552E0,-7.595954132E0,2.879112854E0,9.679721949E0
9.773709333E0,5.126389618E0,-7.818241882E0,1.915566559E0,9.543278886E0
9.783735333E0,5.114863586E0,-7.835755463E0,1.454674988E0,9.469792632E0
9.793761333E0,5.118905182E0,-7.800279236E0,1.268162842E0,9.415720016E0
9.803787333E0,5.174290009E0,-7.867639160E0,1.121767273E0,9.483215956E0
9.813813333E0,5.348527679E0,-8.138426056E0,9.321116638E-1,9.783126247E0
9.823839333E0,5.136418762E0,-8.527017975E0,7.110214233E-1,9.979899033E0
9.833865333E0,4.696782990E0,-8.949738922E0,6.002517700E-1,1.012511232E1
9.843891333E0,4.275409241E0,-9.218280487E0,6.337820435E-1,1.018123269E1
9.853917333E0,3.853736115E0,-9.267977142E0,5.986051941E-1,1.005509873E1
9.863943333E0,3.460653534E0,-9.198970642E0,3.784130859E-1,9.835668773E0
9.873969333E0,3.147804108E0,-9.101223907E0,1.016386414E-1,9.630746478E0
9.883995333E0,2.875220947E0,-8.846603394E0,-8.681945801E-3,9.302116021E0
9.894020333E0,2.560275879E0,-8.414901123E0,-7.274871826E-2,8.796071047E0
9.904046333E0,2.195783844E0,-8.252039795E0,3.637435913E-2,8.539259368E0
9.914072333E0,1.830243988E0,-8.397088165E0,1.284329224E-1,8.595195037E0
9.924098333E0,1.497635651E0,-8.912017365E0,-4.583468628E-1,9.048593697E0
9.934124333E0,1.534309387E0,-9.699679413E0,-9.605525208E-1,9.867144833E0
9.944150333E0,1.779948578E0,-1.045770309E1,-1.182540894E0,1.067380785E1
9.954176333E0,2.071093140E0,-1.098116455E1,-1.127754822E0,1.123152851E1
9.964202333E0,2.264940033E0,-1.125719055E1,-4.587959290E-1,1.149194440E1
9.974228333E0,2.130220184E0,-1.067714676E1,1.752854919E-1,1.088898645E1
9.984254333E0,1.737436981E0,-9.336684265E0,-1.317260742E-2,9.496974984E0
9.994280333E0,1.656605072E0,-8.411757660E0,-2.091151428E-1,8.575881088E0
1.000430633E1,1.979034576E0,-7.681576080E0,9.160949707E-2,7.932942785E0
1.001433133E1,2.407294006E0,-7.008126526E0,9.050180054E-1,7.465116170E0
1.002435733E1,2.875071259E0,-6.591991882E0,7.676037598E-1,7.232538092E0
1.003438333E1,3.310815125E0,-6.507118378E0,-3.044668579E-1,7.307310479E0
1.004440933E1,3.618425446E0,-6.426735535E0,-8.626560974E-1,7.425638550E0
1.005443533E1,3.850143585E0,-6.131250000E0,-9.885443115E-1,7.307054950E0
1.006446133E1,3.922592926E0,-5.834417267E0,-7.975415039E-1,7.075537616E0
1.007448733E1,3.621718597E0,-6.337820435E0,-9.545649719E-1,7.361793786E0
1.008451333E1,2.956352234E0,-7.212152252E0,-1.311572571E0,7.904136970E0
1.009453933E1,2.456541595E0,-7.278314667E0,-1.059646454E0,7.754438188E0
1.010456533E1,2.218536530E0,-6.712790680E0,-3.909869385E-1,7.080701507E0
1.011459133E1,2.091151428E0,-6.104904785E0,2.100132751E-1,6.456537951E0
1.012461633E1,1.925446014E0,-5.770500183E0,9.102571106E-1,6.150982257E0
1.013464233E1,1.536554718E0,-6.143823853E0,1.114731903E0,6.430412051E0
1.014466833E1,1.082099762E0,-7.255112915E0,1.856140137E-1,7.337714622E0
1.015469433E1,1.232836304E0,-7.983498230E0,-5.357359314E-1,8.095871931E0
1.016472033E1,2.032323761E0,-8.220754852E0,-4.456233215E-1,8.479960516E0
1.017474633E1,2.742746429E0,-8.756939850E0,6.586303711E-3,9.176420701E0
1.018477233E1,3.146756287E0,-9.467362518E0,4.788542175E-1,9.988109408E0
1.019479833E1,3.442241821E0,-1.034902908E1,1.354383545E0,1.099025871E1
1.020482433E1,3.383713531E0,-1.166015259E1,1.826651459E0,1.227783903E1
1.021485033E1,3.596121826E0,-1.253208939E1,1.571432190E0,1.313220300E1
1.022487633E1,4.477489014E0,-1.317844528E1,1.774859161E0,1.403101753E1
1.023490133E1,5.678740997E0,-1.456276657E1,2.193688202E0,1.578399624E1
1.024492733E1,6.988966370E0,-1.562256271E1,2.339485016E0,1.727377512E1
1.025495333E1,8.088280334E0,-1.579560287E1,2.216590576E0,1.788392079E1
1.026497933E1,8.574768677E0,-1.523606644E1,1.234033813E0,1.752675720E1
1.027500533E1,8.989406433E0,-1.491348724E1,-5.511538696E-1,1.742197751E1
1.028503133E1,1.032462982E1,-1.500659363E1,-9.913135529E0,2.073803485E1
1.029505733E1,1.243314514E1,-1.606234818E1,-9.042096863E0,2.223379506E1
1.030508333E1,1.362137421E1,-1.922781555E1,-9.403445435E-1,2.358251416E1
1.031510933E1,1.455962311E1,-2.285148010E1,-4.414470062E0,2.745287442E1
1.032513533E1,1.659224625E1,-2.741698608E1,-5.843847656E0,3.257521016E1
1.033516133E1,1.874970978E1,-3.232228546E1,-3.757635956E0,3.755531363E1
1.034518633E1,1.989198441E1,-3.445834351E1,-1.814077606E0,3.982912701E1
1.035521233E1,1.918111267E1,-3.414758972E1,-3.920347595E-1,3.916792895E1
1.036523833E1,1.585338272E1,-3.079336487E1,6.489006042E-1,3.464075830E1
1.037526433E1,1.204335571E1,-2.622441605E1,1.096769257E0,2.887845766E1
1.038529033E1,9.074579315E0,-2.263996994E1,1.100511475E0,2.441571941E1
1.039531633E1,6.701264648E0,-1.991174332E1,1.405577087E0,2.105611827E1
1.040534233E1,4.518952789E0,-1.740999573E1,2.815345459E0,1.820590716E1
1.041536833E1,3.498225403E-1,-1.565669174E1,5.312602386E0,1.653717377E1
1.042539433E1,-3.381168823E0,-1.408331360E1,8.804391174E0,1.694961146E1
1.043542033E1,-5.393284607E0,-1.190998306E1,1.169996979E1,1.754492828E1
1.044544633E1,-5.940995636E0,-1.033914963E1,9.881251831E0,1.548652905E1
1.045547133E1,-5.861061859E0,-8.974437561E0,6.572232971E0,1.257325820E1
1.046549733E1,-5.990692291E0,-7.362589417E0,3.815266113E0,1.022997422E1
1.047552333E1,-5.641618195E0,-5.301824799E0,5.541476440E-1,7.761718989E0
1.048554933E1,-5.195695496E0,-2.402054901E0,-5.970634003E0,8.271250802E0
1.049557533E1,-4.707111511E0,-7.173083496E-1,-1.025322830E1,1.130487155E1
1.050560133E1,-3.680546265E0,-2.516267395E-1,-7.733817444E0,8.568644530E0
1.051562733E1,-3.191513214E0,7.424560547E-2,-2.431992645E0,4.013210340E0
1.052565333E1,-4.631518707E0,6.480024719E-1,-6.222560120E-1,4.717846467E0
1.053567933E1,-6.311924286E0,1.249451752E0,-2.555186462E-1,6.439472622E0
1.054570533E1,-6.979535980E0,2.009870453E0,-3.738326111E0,8.168756567E0
1.055573133E1,-6.739285583E0,2.873274994E0,-1.156480087E1,1.369008030E1
1.056575633E1,-4.730462952E0,2.429747314E0,-9.759405212E0,1.111426749E1
1.057578233E1,-2.966980133E0,9.539662170E-1,-1.556762695E0,3.483752681E0
1.058580833E1,-2.815644836E0,-1.600172424E-1,3.242706757E0,4.297511893E0
1.059583433E1,-2.687810669E0,-3.429368591E-1,5.231321411E0,5.891405230E0
1.060586033E1,-1.929786987E0,2.580633545E-1,5.547314301E0,5.879062039E0
1.061588633E1,-9.904902649E-1,8.984317017E-1,1.079105988E0,1.718348108E0
1.062591233E1,-2.733316040E-1,1.630559235E0,-7.291038208E0,7.476140163E0
1.063593833E1,2.417472839E-1,1.540296936E0,-8.689579926E0,8.828349545E0
1.064596433E1,-9.954299927E-2,2.691403198E-1,-2.782713318E0,2.797470059E0
1.065599033E1,-7.969427490E-1,-3.918850708E-1,-1.689985657E-1,9.040200048E-1
1.066601629E1,-1.111139374E0,-4.167333984E-1,-4.150868225E-1,1.257216968E0
1.067604229E1,-1.079255676E0,-5.478607178E-2,-7.467970276E-1,1.313582936E0
1.068606729E1,-8.149053955E-1,1.748364258E-1,-5.953120422E-1,1.024224100E0
1.069609329E1,-5.613327026E-1,1.868115234E-1,-4.114942932E-1,7.206389538E-1
1.070611929E1,-4.334985352E-1,9.669891357E-2,-5.771997070E-1,7.283070518E-1
1.071614529E1,-3.290158081E-1,9.430389404E-3,-9.095086670E-1,9.672364497E-1
1.072617129E1,-3.043171692E-1,1.062789917E-2,-1.161584473E0,1.200833202E0
1.073619729E1,-3.591032410E-1,8.187973022E-2,-1.074615326E0,1.135983066E0
1.074622329E1,-4.141886902E-1,2.514770508E-1,-4.731660461E-1,6.772585070E-1
1.075624929E1,-5.679190063E-1,3.546125793E-1,2.790197754E-1,7.253510283E-1
1.076627529E1,-6.724017334E-1,4.053570557E-1,7.482939148E-1,1.084611551E0
1.077630129E1,-6.114784241E-1,4.155358887E-1,8.553213501E-1,1.130553205E0
1.078632629E1,-3.912863159E-1,3.594026184E-1,8.202941895E-1,9.773217384E-1
1.079635229E1,-2.544708252E-1,2.435435486E-1,7.479945374E-1,8.267797100E-1
1.080637829E1,-4.296066284E-1,-3.667373657E-1,7.000941467E-1,8.995498679E-1
1.081640429E1,-8.822653198E-1,-1.552571411E0,5.626799011E-1,1.872292379E0
1.082643029E1,-1.368154907E0,-2.759810944E0,4.656816101E-1,3.115327215E0
1.083645629E1,-2.522554321E0,-5.705535278E0,-2.124082947E-1,6.241917205E0
1.084648229E1,-4.215833130E0,-1.119013000E1,-1.998494110E0,1.212378807E1
1.085650829E1,-1.827699280E0,-1.084509750E1,6.927593994E-1,1.101982487E1
1.086653429E1,-1.789229279E0,-1.790666290E1,2.939886475E-1,1.799823178E1
1.087656029E1,-8.285270691E-1,-3.157294373E1,6.242019653E-2,3.158387451E1
1.088658629E1,1.646725616E0,-4.608736084E1,-7.541317749E-1,4.612293626E1
1.089661229E1,4.053869934E0,-6.311265656E1,-1.257235565E0,6.325521259E1
1.090663729E1,5.471122742E0,-7.636923935E1,-1.633103943E-1,7.656513941E1
1.091666329E1,6.511010284E0,-7.141109985E1,3.349883881E0,7.178551497E1
1.092668929E1,6.043532410E0,-4.306514557E1,9.624984741E-2,4.348724308E1
1.093671529E1,4.314328308E0,-2.876373550E1,1.544039154E0,2.912644787E1
1.094674129E1,3.416046295E0,-2.110820526E1,7.500901794E-1,2.139598880E1
1.095676729E1,2.646795959E0,-1.498713409E1,5.622308350E-1,1.522943928E1
1.096679329E1,2.170037384E0,-1.162527512E1,2.328258362E0,1.205308553E1
1.097681929E1,2.349813538E0,-8.739276581E0,7.005881195E0,1.144460354E1
1.098684529E1,3.501368866E0,-6.779851227E0,3.680396576E0,8.471793526E0
1.099687129E1,5.070555725E0,-5.114115143E0,-9.725276184E-1,7.267084630E0
1.100689629E1,8.627010040E0,-3.253184967E0,-3.124302979E0,9.734977338E0
1.101692229E1,1.747660721E1,-6.984475708E-1,-8.818162537E0,1.958774155E1
1.102694829E1,1.270692581E1,-2.219284973E0,-5.427713013E0,1.399468677E1
1.103697429E1,9.746232605E0,-3.260519714E0,-2.151625671E0,1.049997771E1
1.104700029E1,9.068142700E0,-3.580703888E0,-1.604812775E0,9.880692102E0
1.105702629E1,6.303841095E0,-4.665647736E0,-3.861968994E-2,7.842714634E0
1.106705229E1,5.060227203E0,-5.127886505E0,7.286846924E-1,7.241001363E0
1.107707829E1,4.249213715E0,-5.001249847E0,1.573527832E0,6.748652241E0
1.108710429E1,3.555705872E0,-4.793182526E0,1.592687988E0,6.176916544E0
1.109713029E1,2.902015228E0,-4.407434692E0,1.144370270E0,5.399699646E0
1.110715629E1,2.230361938E0,-3.906127167E0,1.128203888E0,4.637368632E0
1.111718129E1,1.689686279E0,-2.468367004E0,4.357139282E0,5.285124229E0
1.112720729E1,1.250050507E0,-1.319506073E0,3.277733917E0,3.747967740E0
1.113723329E1,1.211730194E0,-2.104324036E0,7.873626709E-2,2.429540926E0
1.114725929E1,8.640032959E-1,-2.085762634E0,-2.084714813E0,3.072937245E0
1.115728529E1,-1.861678619E0,-2.513273621E-1,-1.614168320E1,1.625062919E1
1.116731129E1,-3.956721954E0,4.917274475E-1,-2.171564209E1,2.207864479E1
1.117733729E1,-9.138496399E-1,-3.210823059E-1,-4.090393982E0,4.203514950E0
1.118736329E1,1.422042847E-1,-1.227746887E0,1.455124054E0,1.909180581E0
1.119738929E1,-1.276844788E-1,-1.678309937E0,9.695338440E-1,1.942427204E0
1.120741529E1,-1.246907043E-1,-2.688409424E0,1.219364319E0,2.954647584E0
1.121744129E1,1.468446350E-1,-4.254452820E0,1.050665131E0,4.384726828E0
1.122746629E1,5.158273315E-1,-6.563850403E0,1.043330383E0,6.666239437E0
1.123749229E1,1.151255951E0,-1.154594009E1,1.175206146E0,1.166255686E1
1.124751829E1,3.332969055E0,-2.157164154E1,1.889670410E0,2.190925046E1
1.125754429E1,7.475005646E0,-3.307222595E1,2.909200287E0,3.403103415E1
1.126757029E1,1.064436493E1,-4.016372910E1,4.283791809E0,4.177054598E1
1.127759629E1,1.091575058E1,-4.004996567E1,8.241112518E0,4.232102664E1
1.128762229E1,6.916517029E0,-2.612247803E1,1.596445175E1,3.138607631E1
1.129764829E1,4.650379486E0,-1.895732803E1,4.312082977E0,1.999000688E1
1.130767429E1,3.927083588E0,-1.471604782E1,8.310717773E-1,1.525367920E1
1.131770029E1,2.766397247E0,-1.040635986E1,5.054988098E-1,1.077964788E1
1.132772529E1,1.842069397E0,-7.615263977E0,-1.707948303E-1,7.836749069E0
1.133775129E1,1.139879608E0,-5.374274139E0,-2.808160400E-1,5.501000427E0
1.134777729E1,5.981561279E-1,-3.771107941E0,-5.536985779E-1,3.858189727E0
1.135780329E1,1.613644409E-1,-2.533032532E0,-1.743424530E0,3.079256628E0
1.136782929E1,-6.024971008E-1,-1.275347900E-1,-1.485959930E1,1.487235554E1
1.137785529E1,-1.562151489E0,5.047503662E-1,-1.573557770E1,1.582098277E1
1.138788129E1,-6.738986206E-1,-1.522483978E0,-2.746788025E-1,1.687467114E0
1.139790729E1,-6.968009949E-1,-2.838547211E0,4.831951904E-1,2.962492107E0
1.140793329E1,-8.116122437E-1,-4.302652588E0,3.700305176E-1,4.394138859E0
1.141795929E1,-4.492158508E-1,-5.750591583E0,5.852828979E-1,5.797728392E0
1.142798429E1,1.357676697E-1,-7.521558838E0,1.459614716E0,7.663077406E0
1.143801029E1,1.171014862E0,-1.062655197E1,5.903423767E0,1.221250567E1
1.144803629E1,1.527573395E0,-1.104418350E1,2.820285187E0,1.150049904E1
1.145806229E1,1.923350372E0,-1.143127853E1,-2.179467773E-1,1.159400303E1
1.146808829E1,2.704575806E0,-1.273641449E1,-3.047662354E-1,1.302397277E1
1.147811429E1,3.534150696E0,-1.359517868E1,-4.002676392E-1,1.405273349E1
1.148814029E1,4.488865356E0,-1.367137024E1,-9.490264893E-2,1.438976313E1
1.149816629E1,5.191653900E0,-1.314566345E1,4.450245667E-1,1.414071373E1
1.150819229E1,5.528004456E0,-1.241383530E1,1.304387512E0,1.365150420E1
1.151821829E1,5.366041260E0,-1.156809402E1,2.522404633E0,1.299914318E1
1.152824429E1,5.185217285E0,-1.057281372E1,3.013982391E0,1.215544973E1
1.153826929E1,5.083578644E0,-9.650731201E0,2.461331635E0,1.118201851E1
1.154829529E1,4.840933228E0,-8.953481140E0,1.799857178E0,1.033629261E1
1.155832129E1,4.677323456E0,-8.425079956E0,1.389261017E0,9.735983420E0
1.156834729E1,4.640500031E0,-8.052654419E0,1.120120697E0,9.361311559E0
1.157837329E1,4.706063690E0,-7.796537018E0,9.485774231E-1,9.156026652E0
1.158839929E1,4.779261475E0,-7.623945923E0,8.508306885E-1,9.038241230E0
1.159842529E1,4.871320038E0,-7.602839813E0,1.114133148E0,9.098034118E0
1.160845129E1,5.050647125E0,-7.570207672E0,1.989512787E0,9.315322953E0
1.161847729E1,5.174439697E0,-7.581584015E0,2.129771118E0,9.422906525E0
1.162850329E1,5.070256348E0,-7.873177643E0,9.231303406E-1,9.409920045E0
1.163852929E1,4.517755280E0,-8.336464233E0,-2.380050659E-2,9.481946801E0
1.164855429E1,3.816014557E0,-8.690478058E0,-3.685336304E-1,9.498536361E0
1.165858029E1,3.277434540E0,-8.978179779E0,-3.403921509E-1,9.563741743E0
1.166860671E1,2.855312347E0,-9.367969208E0,2.245330811E-3,9.793449889E0
1.167863271E1,2.426154785E0,-9.835896149E0,5.837860107E-2,1.013086808E1
1.168865871E1,1.756447449E0,-1.048614395E1,-7.752378845E-1,1.066045573E1
1.169868471E1,3.299139404E-1,-1.136855896E1,-3.698957977E0,1.195973520E1
1.170871071E1,-1.266216888E0,-1.183139648E1,-6.748566284E0,1.367948811E1
1.171873671E1,-1.465901642E0,-1.116034195E1,-5.759572906E0,1.264415992E1
1.172876271E1,-5.212161255E-1,-1.012554382E1,-2.535726929E0,1.045123031E1
1.173878871E1,7.873626709E-2,-9.541308746E0,-1.221459961E-1,9.542415398E0
1.174881371E1,1.203497314E-1,-9.162895660E0,1.225800934E0,9.245308479E0
1.175883971E1,-1.468446350E-1,-8.816515961E0,1.679357758E0,8.976233036E0
1.176886571E1,-4.637356567E-1,-8.458909607E0,1.686093750E0,8.637772550E0
1.177889171E1,-7.194039917E-1,-8.005053406E0,1.899100800E0,8.258632210E0
1.178891771E1,-9.868977356E-1,-7.524402924E0,1.939067688E0,7.832661744E0
1.179894371E1,-1.143172760E0,-6.898554382E0,1.457668762E0,7.142947203E0
1.180896971E1,-1.313518524E0,-6.306685181E0,5.138813782E-1,6.462482724E0
1.181899571E1,-1.600771179E0,-5.957910461E0,-6.141728210E-1,6.199707549E0
1.182902171E1,-1.924697571E0,-6.010301514E0,-1.380279694E0,6.460135994E0
1.183904771E1,-2.155816956E0,-6.637197876E0,-6.617738342E-1,7.009842152E0
1.184907271E1,-2.321821747E0,-7.608677673E0,5.791456604E-1,7.976104429E0
1.185909871E1,-2.168390808E0,-8.724307709E0,1.491648102E0,9.112654814E0
1.186912471E1,-1.629511414E0,-9.710307312E0,1.864522705E0,1.002106883E1
1.187915071E1,-4.718188477E-1,-1.017104919E1,1.260229340E0,1.025967995E1
1.188917671E1,9.237290955E-1,-1.002031265E1,6.421646118E-2,1.006300476E1
1.189920271E1,2.262395325E0,-9.498797150E0,-6.968009949E-1,9.789336623E0
1.190922871E1,3.552412720E0,-9.447304230E0,-2.593057709E0,1.042089927E1
1.191925471E1,5.238207092E0,-9.953850861E0,-3.659290466E0,1.182828674E1
1.192928071E1,6.912026367E0,-9.811646576E0,-4.236190796E-1,1.200932846E1
1.193930671E1,7.783065033E0,-8.637637939E0,3.369493103E-1,1.163178513E1
1.194933271E1,8.944948883E0,-7.873027954E0,-2.249222717E0,1.212665174E1
1.195935771E1,1.044677582E1,-7.552095337E0,-6.331683197E0,1.436173670E1
1.196938371E1,1.091949280E1,-7.943231964E0,-4.777764587E0,1.432331287E1
1.197940971E1,1.003617966E1,-1.023915756E1,-2.576142883E-1,1.433986105E1
1.198943571E1,9.134454803E0,-1.345701599E1,-1.257984009E0,1.631294172E1
1.199946171E1,8.530909882E0,-1.627849869E1,-3.443139954E0,1.869815915E1
1.200948771E1,7.969876556E0,-1.761506927E1,-2.084116058E0,1.944615997E1
1.201951371E1,7.716453552E0,-1.932690948E1,3.772155762E-1,2.081382659E1
1.202953971E1,7.953710175E0,-2.334201004E1,8.611592102E-1,2.467493735E1
1.203956571E1,7.570956116E0,-2.694456848E1,-1.646575928E-3,2.798801797E1
1.204959171E1,6.690337372E0,-3.140798676E1,-2.839595032E-1,3.211390476E1
1.205961671E1,5.942342834E0,-3.584880203E1,1.649569702E-1,3.633834416E1
1.206964271E1,6.349047089E0,-3.809173782E1,1.269360352E0,3.863809215E1
1.207966871E1,6.658154297E0,-3.949252487E1,1.791624298E0,4.008990468E1
1.208969471E1,5.920188904E0,-3.761303329E1,2.801274719E0,3.817900012E1
1.209972071E1,5.185366974E0,-2.991020142E1,3.010838928E0,3.050530004E1
1.210974671E1,4.364174652E0,-2.334111191E1,3.103945312E0,2.394760953E1
1.211977271E1,2.629581757E0,-2.000724472E1,3.505859528E0,2.048159155E1
1.212979871E1,1.336869965E0,-1.728485596E1,4.298610992E0,1.786145356E1
1.213982471E1,2.609074402E-1,-1.521840317E1,5.233417053E0,1.609523289E1
1.214985071E1,-4.935237122E-1,-1.305510178E1,5.608836365E0,1.421753472E1
1.215987571E1,-9.635462952E-1,-1.110720245E1,4.397854614E0,1.198496946E1
1.216990171E1,-7.259902954E-1,-9.649683380E0,2.647544403E0,1.003259401E1
1.217992771E1,-1.239422607E-1,-7.868686981E0,7.162605286E-1,7.902191192E0
1.218995371E1,-2.784210205E-2,-4.616699524E0,-6.141129456E0,7.682978632E0
1.219997971E1,5.577401733E-1,1.987866211E-1,-2.162957108E1,2.163767398E1
1.221000571E1,2.158511353E0,3.331172791E0,-2.655268341E1,2.684773509E1
1.222003171E1,2.578088837E0,1.372795258E0,-1.097667389E1,1.135863013E1
1.223005771E1,-1.083746338E-1,1.738484802E0,1.173140442E1,1.186001366E1
1.224008371E1,-3.535048828E0,-1.369053040E0,7.123686218E0,8.069558958E0
1.225010971E1,-3.458108826E0,-4.297263794E0,1.188079376E0,5.642386496E0
1.226013471E1,-3.187022552E0,-3.334615631E0,1.553319855E0,4.867193928E0
1.227016071E1,-3.016377411E0,-1.956281891E0,1.597328339E0,3.934085579E0
1.228018671E1,-3.019221497E0,-1.118324432E0,1.638941803E0,3.612821365E0
1.229021271E1,-3.004552002E0,-8.065228271E-1,1.032103729E0,3.277659212E0
1.230023871E1,-2.750230865E0,-4.667294312E-1,3.927832031E-1,2.817070255E0
1.231026471E1,-2.649939423E0,-1.624122620E-1,-8.740324402E-1,2.795083074E0
1.232029071E1,-3.061433716E0,1.236428833E-1,-4.246219940E0,5.236224569E0
1.233031671E1,-3.332969055E0,2.510279846E-1,-6.135590973E0,6.986928822E0
1.234034271E1,-2.980302429E0,-2.701881409E-1,-3.230731659E0,4.403729244E0
1.235036871E1,-3.050356750E0,-8.003855896E-1,-1.066382446E0,3.329033631E0
1.236039371E1,-3.372786255E0,-1.061592407E0,-1.601669312E-1,3.539536552E0
1.237041971E1,-3.938908997E0,-1.607058105E0,1.268911285E0,4.439344061E0
1.238044571E1,-4.400399323E0,-1.828597412E0,1.868414612E0,5.118423181E0
1.239047171E1,-4.113446045E0,-1.725611572E0,1.429826660E0,4.684290548E0
1.240049771E1,-3.249592438E0,-1.235680389E0,7.355703735E-1,3.553564522E0
1.241052371E1,-2.238594818E0,-4.198768616E-1,7.936495972E-1,2.411945899E0
1.242054971E1,-1.076112213E0,7.352709961E-1,1.205742645E0,1.775515773E0
1.243057571E1,-2.785707092E-1,1.711391144E0,1.319655762E0,2.178979719E0
1.244060171E1,-5.538482666E-2,2.280657349E0,1.186582489E0,2.571467173E0
1.245062771E1,-1.525328064E-1,2.453547821E0,6.876699829E-1,2.552656102E0
1.246065271E1,-5.034031677E-1,1.835483093E0,-4.505630493E-2,1.903796997E0
1.247067871E1,-8.448431396E-1,1.003812561E0,-3.809577942E-1,1.366209511E0
1.248070471E1,-9.345066833E-1,5.780978394E-1,-8.502319336E-2,1.102147357E0
1.249073071E1,-8.687933350E-1,3.763174438E-1,3.444337463E-1,1.007497535E0
1.250075671E1,-8.023315430E-1,1.523831177E-1,3.823049927E-1,9.017281335E-1
1.251078271E1,-7.641609192E-1,4.760101318E-2,1.824705505E-1,7.870852995E-1
1.252080871E1,-6.885681152E-1,5.852828979E-2,2.245330811E-2,6.914157657E-1
1.253083471E1,-6.441105652E-1,9.699829102E-2,-6.945556641E-2,6.550657710E-1
1.254086071E1,-7.212002563E-1,2.784210205E-2,-1.035845947E-1,7.291328827E-1
1.255088671E1,-1.509461060E0,-6.807843018E-1,-9.437873840E-1,1.905957655E0
1.256091171E1,-2.427801361E0,-1.733694763E0,-1.473685455E0,3.327411276E0
1.257093771E1,-2.371069336E0,-2.320773926E0,1.502874756E-1,3.321226842E0
1.258096371E1,-1.781445465E0,-3.456761627E0,1.094972992E0,4.040014201E0
1.259098971E1,-1.624272308E0,-6.008205872E0,1.390608215E0,6.377349727E0
1.260101571E1,-3.005300446E0,-1.069600754E1,1.713636475E0,1.124157275E1
1.261104171E1,-4.282145233E0,-1.957449463E1,1.622026978E0,2.010294952E1
1.262106771E1,-3.031945038E0,-3.178026260E1,8.102650452E-1,3.193484478E1
1.263109371E1,6.735992432E-1,-4.779021973E1,2.649490356E-2,4.779497400E1
1.264111971E1,3.068319397E0,-7.080381271E1,-7.924520874E-1,7.087469548E1
1.265114571E1,5.491480408E0,-8.631635422E1,2.574795685E0,8.652917968E1
1.266117108E1,7.444469147E0,-7.777601395E1,1.708996124E0,7.815017040E1
1.267119708E1,6.516698456E0,-5.179214767E1,1.046324158E-1,5.220062133E1
1.268122308E1,4.340374146E0,-3.395823349E1,1.332079926E0,3.426039852E1
1.269124908E1,3.546574860E0,-2.215677475E1,-2.224374390E-1,2.243992734E1
1.270127508E1,2.888992310E0,-1.519205795E1,-1.454974365E-1,1.546499502E1
1.271130108E1,2.630330200E0,-1.026744873E1,-1.215472412E-1,1.059971293E1
1.272132708E1,2.968027954E0,-6.116430817E0,2.981799316E-1,6.805058937E0
1.273135308E1,4.981341248E0,-3.553610229E0,7.848928070E0,9.952264975E0
1.274137908E1,1.030936157E1,-9.433383179E-1,4.713398438E0,1.137492629E1
1.275140508E1,1.246787292E1,4.773573303E-1,-5.163512421E0,1.350324353E1
1.276143008E1,1.001686981E1,-1.088237000E-1,-4.060456238E0,1.080910858E1
1.277145608E1,7.935597839E0,-9.874964905E-1,-3.327280884E0,8.661389061E0
1.278148208E1,6.324049072E0,-1.619931335E0,-3.356170807E0,7.340412569E0
1.279150808E1,6.058800659E0,-1.591191101E0,-2.522404633E0,6.753034849E0
1.280153408E1,5.945785675E0,-1.365011444E0,-1.618733826E0,6.311570544E0
1.281156008E1,5.795797577E0,-1.033001862E0,-3.692820740E-1,5.898705930E0
1.282158608E1,5.229076080E0,-7.900570679E-1,7.679031372E-1,5.343884547E0
1.283161208E1,4.639452209E0,-7.803273010E-1,1.008602600E0,4.811518129E0
1.284163808E1,4.091142426E0,-6.486012268E-1,1.084943848E0,4.281966026E0
1.285166308E1,3.466940460E0,-3.799099731E-1,1.044078827E0,3.640619225E0
1.286168908E1,2.863096161E0,2.668949890E-1,1.566791840E0,3.274658643E0
1.287171508E1,2.295177155E0,1.500629425E0,2.407743073E0,3.649240133E0
1.288174108E1,1.623523865E0,1.234482880E0,1.080004120E0,2.307853249E0
1.289176708E1,9.148974609E-1,-1.899549866E-1,-2.918930054E-2,9.348648438E-1
1.290179308E1,4.534071350E-1,-1.050964508E0,-1.642085266E-1,1.156316941E0
1.291181908E1,3.935316467E-1,-1.563648376E0,-9.041198730E-2,1.614942021E0
1.292184508E1,5.152285767E-1,-2.084415436E0,2.814147949E-2,2.147333262E0
1.293187108E1,6.527925110E-1,-2.854713593E0,1.095721436E-1,2.930449422E0
1.294189708E1,8.526269531E-1,-3.801195374E0,7.918533325E-2,3.896450860E0
1.295192308E1,1.012195129E0,-5.091063080E0,-2.305206299E-2,5.190760413E0
1.296194808E1,1.256038055E0,-6.901548157E0,3.996688843E-2,7.015026437E0
1.297197408E1,1.700763245E0,-9.467362518E0,2.580633545E-1,9.622377324E0
1.298200008E1,2.714754639E0,-1.308114761E1,4.352947998E-1,1.336696664E1
1.299202608E1,4.111200714E0,-1.836845261E1,4.761598206E-1,1.882893387E1
1.300205208E1,6.173462219E0,-2.473052261E1,4.296066284E-1,2.549303721E1
1.301207808E1,8.454868011E0,-3.114722900E1,4.442761230E-1,3.227742321E1
1.302210408E1,1.006027954E1,-3.694093094E1,7.968080292E0,3.910667343E1
1.303213008E1,7.856113129E0,-3.577440674E1,1.327334793E1,3.895777787E1
1.304215608E1,4.595294037E0,-2.491449005E1,-1.111588440E0,2.535910430E1
1.305218108E1,3.741170197E0,-1.801653442E1,-1.476379852E0,1.845999904E1
1.306220708E1,2.576591949E0,-1.343516144E1,-1.401385803E0,1.375159158E1
1.307223308E1,1.594783630E0,-9.879605255E0,-1.513652344E0,1.012131801E1
1.308225908E1,1.050066376E0,-7.372468872E0,-1.215472412E0,7.545416479E0
1.309228508E1,6.966513062E-1,-5.473517761E0,-1.081950073E0,5.622751612E0
1.310231108E1,4.331991577E-1,-4.076023865E0,-9.265731812E-1,4.202400495E0
1.311233708E1,1.808239746E-1,-3.019520874E0,-8.402027893E-1,3.139449688E0
1.312236308E1,-1.092727661E-2,-2.022743683E0,-1.207987976E0,2.356023421E0
1.313238908E1,-1.148112488E-1,-9.750723267E-1,-1.725012817E0,1.984846817E0
1.314241508E1,-1.890568542E-1,-8.550219727E-1,-9.008267212E-1,1.256301655E0
1.315244008E1,-4.376898193E-1,-1.478475494E0,-1.541793823E-1,1.549591381E0
1.316246608E1,-7.578739929E-1,-2.692451019E0,-8.921447754E-2,2.798504012E0
1.317249208E1,-6.604266357E-1,-3.934418335E0,-1.437011719E-1,3.992049724E0
1.318251808E1,-3.327580261E-1,-5.072351990E0,-1.742376709E-1,5.086240397E0
1.319254408E1,6.646179199E-2,-6.375691681E0,-1.318757629E-1,6.377401728E0
1.320257008E1,5.275030518E-1,-7.859555969E0,1.088237000E-1,7.877989725E0
1.321259608E1,1.031954041E0,-9.533375244E0,4.309538269E-1,9.598744391E0
1.322262208E1,1.606459351E0,-1.132260452E1,6.086343384E-1,1.145218410E1
1.323264808E1,2.175126801E0,-1.295750473E1,7.258406067E-1,1.315883544E1
1.324267308E1,2.906356201E0,-1.456815536E1,1.063089294E0,1.489322718E1
1.325269908E1,3.673361206E0,-1.608135864E1,1.601968689E0,1.657317055E1
1.326272508E1,4.431235199E0,-1.707843521E1,1.988764343E0,1.775567454E1
1.327275108E1,5.091362457E0,-1.683354446E1,1.912722473E0,1.769035608E1
1.328277708E1,5.504054260E0,-1.439795929E1,1.489702148E0,1.548596324E1
1.329280308E1,5.319937134E0,-1.177017380E1,1.079405365E0,1.296162946E1
1.330282908E1,4.903353424E0,-9.974807281E0,7.105723572E-1,1.113752972E1
1.331285508E1,4.558320923E0,-8.605155487E0,5.002597046E-1,9.750756400E0
1.332288108E1,4.139192505E0,-7.645052032E0,3.347039795E-1,8.700101259E0
1.333290708E1,3.766317902E0,-6.951843567E0,1.474433899E-1,7.907908641E0
1.334293208E1,3.478616180E0,-6.546935577E0,-9.535171509E-2,7.414325858E0
1.335295808E1,3.256328430E0,-6.379583588E0,-3.085084534E-1,7.169235598E0
1.336298408E1,3.210074615E0,-6.424190826E0,-3.676354980E-1,7.190963960E0
1.337301008E1,3.564836884E0,-6.902745667E0,-1.724414062E-1,7.770823366E0
1.338303608E1,3.889960785E0,-7.747289429E0,1.142124939E-1,8.669794282E0
1.339306208E1,3.855233002E0,-8.442743225E0,4.334985352E-1,9.291429150E0
1.340308808E1,3.645369415E0,-8.981472931E0,6.550378418E-1,9.715176208E0
1.341311408E1,3.260669403E0,-9.333391113E0,6.074368286E-1,9.905207425E0
1.342314008E1,2.652633820E0,-9.543254700E0,-2.993774414E-4,9.905058129E0
1.343316508E1,1.662742310E0,-9.834099884E0,-1.687291260E0,1.011539343E1
1.344319108E1,4.011657715E-2,-1.034364029E1,-5.011877747E0,1.149397330E1
1.345321708E1,-8.083190918E-1,-1.050590286E1,-6.310277710E0,1.228197783E1
1.346324308E1,-5.804928589E-1,-1.014934433E1,-4.542453918E0,1.113463290E1
1.347326908E1,-2.395019531E-2,-9.910141754E0,-2.249671783E0,1.016230812E1
1.348329508E1,5.992039490E-1,-9.930798798E0,1.047821045E-2,9.948865258E0
1.349332108E1,1.020428009E0,-1.001522324E1,1.275946655E0,1.014761103E1
1.350334708E1,1.304836578E0,-9.837542725E0,1.951940918E0,1.011384787E1
1.351337308E1,1.592687988E0,-9.220974884E0,2.669848022E0,9.730936301E0
1.352339908E1,1.520088959E0,-8.692573700E0,4.037104797E0,9.704108569E0
1.353342408E1,-3.179388428E-1,-8.587342529E0,3.590583344E0,9.313207051E0
1.354345008E1,-2.940335541E0,-8.537196808E0,-1.315614166E0,9.124699615E0
1.355347608E1,-4.083508301E0,-7.579188995E0,-3.155737610E0,9.169396149E0
1.356350208E1,-3.706442413E0,-5.733227692E0,-2.771636353E0,7.368146524E0
1.357352808E1,-1.965712280E0,-4.092639313E0,-4.770579529E-1,4.565227881E0
1.358355408E1,-3.058140564E-1,-3.178939362E0,4.960684204E-1,3.231912991E0
1.359358008E1,1.763632507E0,-2.381547546E0,-6.256988525E-1,3.028806265E0
1.360360608E1,3.389401703E0,-2.166145477E0,-2.168540497E0,4.569770018E0
1.361363208E1,4.540657654E0,-2.786754913E0,-3.356320496E0,6.296702482E0
1.362365708E1,5.288203125E0,-5.338348846E0,-2.635868683E0,7.963093897E0
1.363368308E1,5.165757751E0,-8.411757660E0,6.168672180E-1,9.890563444E0
1.364370908E1,4.555925903E0,-1.041100021E1,3.248095551E0,1.181928555E1
1.365373508E1,3.879632263E0,-1.201491486E1,4.361779633E0,1.335795071E1
1.366376067E1,2.934946747E0,-1.373094635E1,1.060843964E0,1.408112886E1
1.367378667E1,3.595373383E0,-1.436158493E1,1.000968475E0,1.483859055E1
1.368381267E1,6.474037170E0,-1.390368713E1,4.958438873E0,1.611867827E1
1.369383867E1,8.344697113E0,-1.529534317E1,1.404379578E0,1.748009653E1
1.370386467E1,1.035636383E1,-1.583811447E1,-8.148305511E0,2.060327703E1
1.371389067E1,1.267504211E1,-1.550565582E1,-6.852450256E0,2.116691120E1
1.372391567E1,1.406684784E1,-1.699251389E1,-7.667505341E0,2.335406548E1
1.373394167E1,1.349728226E1,-1.869492371E1,-5.252577209E0,2.364881325E1
1.374396767E1,1.213346832E1,-2.077709381E1,-1.315165100E0,2.409643833E1
1.375399367E1,1.165805695E1,-2.609658188E1,-3.872447205E-1,2.858481828E1
1.376401967E1,1.142229721E1,-3.273213318E1,-8.758287048E-1,3.467893441E1
1.377404567E1,1.116782639E1,-3.848077881E1,-5.345384216E-1,4.007214014E1
1.378407167E1,1.136691238E1,-4.158517319E1,1.135688324E0,4.312566654E1
1.379409767E1,1.098610428E1,-4.305317047E1,2.536924438E0,4.450512286E1
1.380412367E1,8.250842285E0,-4.001149567E1,3.745211792E0,4.102466082E1
1.381414867E1,5.400769043E0,-3.088048370E1,3.956871643E0,3.159793369E1
1.382417467E1,3.284320221E0,-2.368809036E1,3.866160278E0,2.422518482E1
1.383420067E1,1.525477753E0,-1.912797318E1,4.251309357E0,1.965400904E1
1.384422667E1,4.224215698E-1,-1.551059555E1,4.271367645E0,1.609352652E1
1.385425267E1,-5.158273315E-1,-1.298759216E1,3.315006409E0,1.341390680E1
1.386427867E1,-1.401236115E0,-1.132170639E1,3.723806305E0,1.200046798E1
1.387430467E1,-2.431094513E0,-9.876910858E0,4.979544983E0,1.132516918E1
1.388433067E1,-2.759361877E0,-8.071664886E0,3.846700745E0,9.357508142E0
1.389435667E1,-2.582130432E0,-5.398823090E0,1.523382111E0,6.175385120E0
1.390438167E1,-2.194137268E0,-3.144361267E0,-9.601034546E-1,3.952599749E0
1.391440767E1,-3.137774963E0,-6.120771790E-1,-9.824819183E0,1.033186054E1
1.392443367E1,-4.991669769E0,1.602717133E0,-2.161819473E1,2.224481541E1
1.393445967E1,-3.274141388E0,8.936416626E-1,-1.285302200E1,1.329356129E1
1.394448567E1,-9.192384338E-1,-2.775228882E-1,1.381626892E0,1.682531165E0
1.395451167E1,-1.145418091E0,-7.626640320E-1,2.819536743E0,3.137423541E0
1.396453767E1,-2.664159851E0,-3.366499329E-1,6.527476044E0,7.058259303E0
1.397456367E1,-5.775888977E0,3.617976379E-1,9.153914337E0,1.082986328E1
1.398458967E1,-6.421496429E0,-1.718426514E-1,3.629203033E0,7.378093314E0
1.399461567E1,-5.105433197E0,-1.354682922E-1,9.948312378E-1,5.203219098E0
1.400464067E1,-4.255500641E0,3.366499329E-1,-2.035167847E0,4.729114827E0
1.401466667E1,-3.510948944E0,3.276686096E0,-1.667921539E1,1.735683325E1
1.402469267E1,-3.087180176E0,2.653831329E0,-1.038390656E1,1.115343075E1
1.403471867E1,-2.731220398E0,7.444020081E-1,5.161267090E-1,2.877513856E0
1.404474467E1,-2.074086914E0,7.032376099E-1,6.072871399E-1,2.272702650E0
1.405477067E1,-1.667083282E0,1.017284546E0,6.303392029E-1,2.052160332E0
1.406479667E1,-1.363364868E0,7.387138367E-1,-9.107061768E-1,1.798290198E0
1.407482267E1,-1.122066650E0,4.150868225E-1,-3.458857269E0,3.659921344E0
1.408484867E1,-9.683363342E-1,4.912783813E-1,-4.463567963E0,4.593742337E0
1.409487367E1,-1.011446686E0,4.565505981E-1,-3.654350739E0,3.819128456E0
1.410489967E1,-1.305435333E0,1.375639343E-1,-2.218985596E0,2.578174222E0
1.411492567E1,-1.646875305E0,-2.652484131E-1,-8.277786255E-1,1.862195598E0
1.412495167E1,-1.744322662E0,-3.695814514E-1,7.963439941E-2,1.784823139E0
1.413497767E1,-1.611997833E0,-2.562670898E-1,3.882925415E-1,1.677790492E0
1.414500367E1,-1.410367126E0,-1.285826111E-1,4.430786133E-1,1.483909558E0
1.415502967E1,-1.251697083E0,-1.085243225E-1,3.986210632E-1,1.318112995E0
1.416505567E1,-1.090482330E0,-1.766326904E-1,4.004173279E-1,1.175025471E0
1.417508167E1,-9.153465271E-1,-2.796185303E-1,4.791535950E-1,1.070342915E0
1.418510667E1,-7.430548096E-1,-3.363505554E-1,6.192622375E-1,1.024083915E0
1.419513267E1,-6.256988525E-1,-3.695814514E-1,7.084767151E-1,1.014903325E0
1.420515867E1,-6.524931335E-1,-4.929249573E-1,7.391629028E-1,1.102308532E0
1.421518467E1,-7.800279236E-1,-7.012916565E-1,7.515870667E-1,1.290401747E0
1.422521067E1,-9.686357117E-1,-1.008901978E0,7.478448486E-1,1.586004496E0
1.423523667E1,-1.258582764E0,-1.462309113E0,7.150630188E-1,2.057594137E0
1.424526267E1,-1.535506897E0,-2.117346954E0,5.984555054E-1,2.683111729E0
1.425528867E1,-1.825304260E0,-2.922821960E0,4.102967834E-1,3.470297870E0
1.426531467E1,-2.226470032E0,-4.028572540E0,3.285667419E-1,4.614598749E0
1.427533967E1,-2.657423859E0,-5.907315674E0,3.950285339E-1,6.489555268E0
1.428536567E1,-2.924618225E0,-9.205856323E0,2.276765442E-1,9.661936608E0
1.429539167E1,-1.908531189E0,-1.178469360E1,-6.376739502E-2,1.193840697E1
1.430541767E1,-6.743476868E-1,-1.736119720E1,-1.302291870E-2,1.737429373E1
1.431544367E1,1.383572845E0,-2.739243713E1,1.157393188E0,2.745176579E1
1.432546967E1,5.434299316E0,-3.815086487E1,1.638343048E0,3.857076960E1
1.433549567E1,8.682993622E0,-4.917424164E1,5.658233643E-2,4.993499395E1
1.434552167E1,1.101574265E1,-6.034895370E1,5.409750366E-1,6.134847556E1
1.435554767E1,1.291693909E1,-6.535454453E1,1.208886108E0,6.662976220E1
1.436557367E1,1.222986786E1,-5.929574387E1,1.757794647E0,6.056933837E1
1.437559867E1,1.012000534E1,-4.357423691E1,2.055824890E0,4.478119076E1
1.438562467E1,7.534881134E0,-2.563030151E1,7.964637451E0,2.787691230E1
1.439565067E1,7.539671173E0,-2.368240219E1,-2.237846375E-1,2.485463527E1
1.440567667E1,6.460116119E0,-1.965547623E1,-3.480262756E0,2.098054038E1
1.441570267E1,5.619164886E0,-1.439077423E1,-3.129093018E0,1.576263367E1
1.442572867E1,9.550140381E0,-8.069569244E0,-2.160771652E1,2.496430537E1
1.443575467E1,2.543795151E1,3.788621521E0,-5.331044037E1,5.918991538E1
1.444578067E1,6.983876953E0,-7.426955566E0,4.862488403E0,1.129504315E1
1.445580667E1,5.255121918E0,-6.925498352E0,2.065854034E0,8.935691730E0
1.446583167E1,6.500532074E0,-5.142556000E0,3.809278564E0,9.122138052E0
1.447585767E1,6.021228790E0,-4.743635559E0,6.672225037E0,1.016247319E1
1.448588367E1,6.289171600E0,-4.206851807E0,6.260880432E0,9.820891269E0
1.449590967E1,5.386398926E0,-4.326004028E0,5.789211273E0,9.013466115E0
1.450593567E1,4.653522949E0,-3.914210358E0,5.202880554E0,8.002892266E0
1.451596167E1,4.298461304E0,-3.058739319E0,4.816833344E0,7.143846251E0
1.452598767E1,3.946692810E0,-2.361189880E0,3.991300049E0,6.089505552E0
1.453601367E1,3.479364624E0,-1.717378693E0,3.260070648E0,5.067882042E0
1.454603967E1,2.858755188E0,-1.265618134E0,2.713706818E0,4.139864150E0
1.455606467E1,2.285597076E0,-9.086105347E-1,1.824256439E0,3.062260383E0
1.456609067E1,1.850751343E0,-6.494993591E-1,1.150806885E0,2.274090244E0
1.457611667E1,1.446891174E0,-4.733157349E-1,8.334667969E-1,1.735565832E0
1.458614267E1,1.121318207E0,-3.766168213E-1,6.173162842E-1,1.334269143E0
1.459616867E1,8.631051636E-1,-3.429368591E-1,4.119433594E-1,1.015998791E0
1.460619467E1,5.983058167E-1,-4.020639038E-1,2.636018372E-1,7.675357722E-1
1.461622067E1,3.436853027E-1,-6.768923950E-1,2.079176331E-1,7.871039600E-1
1.462624667E1,1.267863464E-1,-1.456022186E0,1.751358032E-2,1.461636791E0
1.463627267E1,3.906875610E-2,-2.216141510E0,-3.291654968E-1,2.240794387E0
1.464629767E1,4.490661621E-2,-3.126697998E0,-8.168513489E-1,3.231950356E0
1.465632367E1,-2.080673218E-1,-5.064268799E0,-3.172652435E0,5.979618211E0
1.466634946E1,-1.041983185E0,-1.030561935E1,-1.099538498E1,1.510595942E1
1.467637546E1,1.998344421E-1,-1.441711945E1,-8.068521423E0,1.652253930E1
1.468640146E1,2.477947083E0,-1.970726852E1,-2.655328217E0,2.003914725E1
1.469642746E1,5.386698303E0,-2.803490112E1,-7.015910339E-1,2.855633782E1
1.470645346E1,8.367449799E0,-3.455773682E1,6.352789307E-1,3.556198770E1
1.471647946E1,9.946516113E0,-3.739972687E1,1.973945160E0,3.875008661E1
1.472650546E1,8.205785980E0,-2.768941956E1,3.316203918E0,2.906950442E1
1.473653046E1,5.759572906E0,-1.745595016E1,2.389331360E0,1.853622887E1
1.474655646E1,4.409979401E0,-1.267833527E1,9.413923645E-1,1.345638596E1
1.475658246E1,3.445385284E0,-8.742120667E0,2.999761963E-1,9.401347734E0
1.476660846E1,2.773731995E0,-6.180946655E0,4.610412598E-2,6.774940319E0
1.477663446E1,2.061063995E0,-4.460424500E0,1.993853760E-1,4.917634191E0
1.478666046E1,1.610051880E0,-3.227288818E0,4.739144897E-1,3.637616681E0
1.479668646E1,1.367406464E0,-2.419568481E0,6.625222778E-1,2.857104801E0
1.480671246E1,1.323248291E0,-1.934277649E0,6.489006042E-1,2.431766448E0
1.481673846E1,1.327289886E0,-1.687590637E0,4.486170959E-1,2.193380473E0
1.482676346E1,1.506167908E0,-1.624721375E0,3.014730835E-1,2.235877307E0
1.483678946E1,2.016307068E0,-2.052232361E0,1.377136230E-1,2.880298057E0
1.484681546E1,2.501148834E0,-3.521427155E0,-1.194515991E-1,4.320933161E0
1.485684146E1,2.748135223E0,-5.491480408E0,-1.715432739E-1,6.143128793E0
1.486686746E1,3.205284576E0,-7.336393890E0,1.335223389E-1,8.007143857E0
1.487689346E1,3.707639923E0,-9.507030029E0,4.950205994E-1,1.021642105E1
1.488691946E1,4.104464722E0,-1.162467636E1,3.938310242E-1,1.233429504E1
1.489694546E1,4.450095978E0,-1.344534027E1,5.927673340E-2,1.416276961E1
1.490697146E1,4.751269684E0,-1.493579086E1,1.639091492E-1,1.567415958E1
1.491699646E1,4.705764313E0,-1.545685730E1,7.650590515E-1,1.617541254E1
1.492702246E1,4.035757599E0,-1.297606613E1,1.534608765E0,1.367554956E1
1.493704846E1,3.607049103E0,-9.947114868E0,1.473386078E0,1.068301287E1
1.494707446E1,3.231031036E0,-8.823850708E0,9.936337280E-1,9.449191016E0
1.495710046E1,2.742147675E0,-8.480015717E0,5.150788879E-1,8.927225027E0
1.496712646E1,2.243534546E0,-8.934470673E0,-4.700225830E-2,9.211971704E0
1.497715246E1,1.680106201E0,-9.847422180E0,-1.020128632E0,1.004167032E1
1.498717846E1,9.951306152E-1,-1.054122940E1,-2.535726929E0,1.088750262E1
1.499720346E1,4.343966675E-1,-1.068298462E1,-3.278632050E0,1.118321461E1
1.500722946E1,3.363505554E-1,-1.030367340E1,-2.374811554E0,1.057915626E1
1.501725546E1,5.763015747E-1,-9.673483887E0,-8.246351624E-1,9.725658701E0
1.502728146E1,8.390052795E-1,-9.073531494E0,1.727407837E-1,9.113876399E0
1.503730746E1,1.096769257E0,-8.599916382E0,3.878434753E-1,8.678242169E0
1.504733346E1,1.398691406E0,-8.419391785E0,1.489402771E-1,8.536081002E0
1.505735946E1,1.764680328E0,-8.557105408E0,-1.495390320E-1,8.738450180E0
1.506738546E1,2.077380066E0,-8.934620361E0,-2.592608643E-1,9.176609675E0
1.507741146E1,2.333946533E0,-9.280550995E0,-1.471440125E-1,9.570662702E0
1.508743746E1,2.512076111E0,-9.491312714E0,6.556365967E-2,9.818342121E0
1.509746246E1,2.582579498E0,-9.715696106E0,2.293231201E-1,1.005569773E1
1.510748846E1,2.465373230E0,-9.964329071E0,1.851649475E-1,1.026646020E1
1.511751446E1,2.213297424E0,-1.012554382E1,-2.369572449E-1,1.036732714E1
1.512754046E1,2.006128235E0,-1.027792694E1,-7.696994019E-1,1.050013190E1
1.513756646E1,1.909579010E0,-1.031325348E1,-1.085243225E0,1.054454561E1
1.514759246E1,1.914219360E0,-1.015907410E1,-1.025367737E0,1.038857070E1
1.515761846E1,1.986219635E0,-1.005264542E1,-7.234455872E-1,1.027249346E1
1.516764446E1,2.050286407E0,-1.005548950E1,-5.029541016E-1,1.027470225E1
1.517766946E1,2.127974854E0,-1.003528152E1,-4.065545654E-1,1.026647159E1
1.518769546E1,2.231559448E0,-9.872869263E0,-1.689985657E-1,1.012333767E1
1.519772146E1,2.362836456E0,-9.570647736E0,2.231858826E-1,9.860532751E0
1.520774746E1,2.375709686E0,-9.071286163E0,5.225633240E-1,9.391767757E0
1.521777346E1,2.253713379E0,-8.377628632E0,5.578898621E-1,8.693395573E0
1.522779946E1,2.103425903E0,-7.618706818E0,4.833448792E-1,7.918504681E0
1.523782546E1,2.046394501E0,-6.723119202E0,5.486091614E-1,7.049044919E0
1.524785146E1,1.948498077E0,-5.804180145E0,5.454656982E-1,6.146762135E0
1.525787746E1,1.860930176E0,-4.910688171E0,3.796105957E-1,5.265170808E0
1.526790346E1,1.723366241E0,-3.726051636E0,-1.442999268E-1,4.107830871E0
1.527792846E1,1.545386353E0,-2.779869232E0,-1.674567719E0,3.594449745E0
1.528795446E1,1.422491913E0,-2.327659607E0,-4.009262695E0,4.849295809E0
1.529798046E1,1.510209503E0,-2.652484131E0,-5.254822540E0,6.076970029E0
1.530800646E1,1.560804291E0,-4.760101318E0,-2.824476471E0,5.750855756E0
1.531803246E1,1.689237213E0,-7.132517853E0,-5.760021973E-1,7.352422173E0
1.532805846E1,2.163151703E0,-8.653205566E0,6.709048462E-1,8.944680272E0
1.533808446E1,2.741548920E0,-9.402397614E0,1.109941864E0,9.856629358E0
1.534811046E1,3.228785706E0,-9.999805298E0,7.613168335E-1,1.053569013E1
1.535813546E1,3.756438446E0,-1.075872711E1,7.876620483E-1,1.142284773E1
1.536816146E1,4.332290955E0,-1.142124939E1,1.347647552E0,1.228941970E1
1.537818746E1,4.809049530E0,-1.188318878E1,2.021396484E0,1.297779553E1
1.538821346E1,4.849914551E0,-1.235515732E1,1.945653992E0,1.341481096E1
1.539823946E1,4.298311615E0,-1.263387772E1,1.028211823E0,1.338460192E1
1.540826546E1,3.437002716E0,-1.251861740E1,2.874023438E-1,1.298504407E1
1.541829146E1,2.215692444E0,-1.209020828E1,-9.791139221E-1,1.233049445E1
1.542831746E1,1.204694824E0,-1.162617325E1,-1.238524475E0,1.175385626E1
1.543834346E1,8.237370300E-1,-1.147229324E1,-5.448669434E-2,1.150195739E1
1.544836846E1,1.043031006E0,-1.142349472E1,1.413510590E0,1.155777476E1
1.545839446E1,1.950593719E0,-1.129925308E1,2.524500275E0,1.174099816E1
1.546842046E1,3.087629242E0,-1.134565659E1,9.533674622E-1,1.179687616E1
1.547844646E1,4.157304840E0,-1.102158051E1,-1.835782471E0,1.192176655E1
1.548847246E1,5.080734558E0,-1.139789795E1,-2.930306396E0,1.281844908E1
1.549849846E1,5.986501007E0,-1.223929825E1,-3.468287659E0,1.405943225E1
1.550852446E1,6.481521606E0,-1.282383270E1,-2.947520599E0,1.466794755E1
1.551855046E1,6.356681213E0,-1.452399719E1,-1.230890350E0,1.590185466E1
1.552857646E1,6.524482269E0,-1.677591431E1,-3.749702454E-1,1.800390992E1
1.553860146E1,6.788533173E0,-1.879356857E1,2.215393066E-2,1.998206429E1
1.554862746E1,7.224875793E0,-2.199810471E1,-4.520599365E-2,2.315421094E1
1.555865346E1,7.962841187E0,-2.594928818E1,3.680845642E-1,2.714604728E1
1.556867946E1,8.685538330E0,-2.947415817E1,8.494834900E-1,3.073900126E1
1.557870546E1,8.923094330E0,-3.196842133E1,7.345225525E-1,3.319851048E1
1.558873146E1,8.582103424E0,-3.181154755E1,4.698728943E-1,3.295220534E1
1.559875746E1,8.471932526E0,-2.977413437E1,-3.667373657E-1,3.095815263E1
1.560878346E1,8.550070038E0,-2.472243942E1,8.662486267E-1,2.617351897E1
1.561880846E1,8.555608521E0,-2.016052597E1,1.335672455E0,2.194149643E1
1.562883446E1,8.043822784E0,-1.740520569E1,1.111738129E0,1.920625502E1
1.563886046E1,7.116800537E0,-1.465961517E1,1.709445190E0,1.638521803E1
1.564888646E1,5.930966492E0,-1.190908493E1,2.862347717E0,1.360866275E1
1.565891246E1,5.052593079E0,-1.065214874E1,3.129242706E0,1.219791497E1
1.566893871E1,4.194128265E0,-9.934840393E0,2.213447113E0,1.100868356E1
1.567896471E1,3.234922943E0,-9.627379761E0,1.307081909E0,1.024009915E1
1.568899071E1,2.494412842E0,-8.760682068E0,6.390211487E-1,9.131264630E0
1.569901671E1,-9.636959839E-1,-6.948700104E0,-1.243104950E1,1.427389697E1
1.570904171E1,-5.002746735E0,-6.747518463E0,-2.374227768E1,2.518436479E1
1.571906771E1,-2.647245026E0,-6.870412903E0,-8.956025848E0,1.159400184E1
1.572909371E1,-1.537153473E0,-6.641838226E0,8.919950867E-1,6.875500786E0
1.573911971E1,-4.581522675E0,-4.582420807E0,3.420986023E0,7.327487689E0
1.574914571E1,-7.639064484E0,-3.434757385E0,3.567830658E0,9.103970567E0
1.575917171E1,-8.403674469E0,-3.455863495E0,-1.190025330E0,9.164109196E0
1.576919771E1,-7.279961243E0,-3.212619324E0,-1.643731842E0,8.125306947E0
1.577922371E1,-5.894741821E0,-2.703977051E0,-3.625460815E-1,6.495453232E0
1.578924971E1,-4.947661285E0,-2.026336212E0,-6.914122009E-1,5.391051982E0
1.579927471E1,-4.173620911E0,-1.200204163E0,-1.785487061E0,4.695483530E0
1.580930071E1,-3.369642792E0,-4.483177185E-1,-1.701511688E0,3.801397552E0
1.581932671E1,-2.492915955E0,-2.484832764E-2,-8.002359009E-1,2.618324826E0
1.582935271E1,-1.821562042E0,1.823208618E-1,-3.293151855E-2,1.830959763E0
1.583937871E1,-1.437909851E0,4.010160828E-1,3.680845642E-1,1.537493052E0
1.584940471E1,-1.236428833E0,5.834866333E-1,5.649252319E-1,1.479308429E0
1.585943071E1,-1.174607391E0,6.948550415E-1,5.716612244E-1,1.479635971E0
1.586945671E1,-1.122515717E0,8.015830994E-1,4.900808716E-1,1.463815651E0
1.587948271E1,-1.070424042E0,8.175997925E-1,4.131408691E-1,1.408886946E0
1.588950771E1,-9.222322083E-1,8.315208435E-1,3.495231628E-1,1.290002171E0
1.589953371E1,-6.885681152E-1,8.864566040E-1,2.981799316E-1,1.161396845E0
1.590955971E1,-3.941304016E-1,9.220825195E-1,3.394940186E-1,1.058693126E0
1.591958571E1,-1.221459961E-1,9.386979675E-1,3.546125793E-1,1.010852907E0
1.592961171E1,4.954696655E-2,9.038204956E-1,3.305126953E-1,9.636311701E-1
1.593963771E1,1.537303162E-1,8.419990540E-1,3.170407104E-1,9.127487217E-1
1.594966371E1,2.404000854E-1,7.592211914E-1,3.239263916E-1,8.597309613E-1
1.595968971E1,3.390449524E-1,6.631210327E-1,3.653901672E-1,8.295727564E-1
1.596971571E1,4.608915710E-1,4.776567078E-1,3.933819580E-1,7.715739340E-1
1.597974071E1,5.535488892E-1,3.504212952E-1,3.950285339E-1,7.650222215E-1
1.598976671E1,6.201603699E-1,2.555186462E-1,4.439767456E-1,8.043655970E-1
1.599979271E1,7.000941467E-1,1.749861145E-1,5.270539856E-1,8.936094551E-1
1.600981871E1,6.965016174E-1,6.047424316E-2,4.974156189E-1,8.580174445E-1
1.601984471E1,4.052073669E-1,-2.799179077E-1,3.833528137E-1,6.241044985E-1
1.602987071E1,5.358856201E-2,-5.584886169E-1,1.565744019E-1,5.824918991E-1
1.603989671E1,-5.014572144E-2,-7.973918152E-1,-4.999603271E-2,8.005297643E-1
1.604992271E1,-8.999285889E-1,-3.115920410E0,7.424560547E-2,3.244124516E0
1.605994871E1,-1.271156616E0,-5.032534790E0,4.815486145E-1,5.212881605E0
1.606997371E1,-1.402583313E-1,-4.777165833E0,-4.490661621E-2,4.779435364E0
1.607999971E1,-4.370910645E-2,-8.617579651E0,-1.646575928E-1,8.619263405E0
1.609002571E1,1.160087585E0,-1.662921936E1,-2.856060791E-1,1.667208177E1
1.610005171E1,4.085903320E0,-2.992247589E1,-8.529263306E-1,3.021219378E1
1.611007771E1,1.107861191E1,-5.088263901E1,-2.299218750E0,5.212547363E1
1.612010371E1,1.924398193E1,-7.147591507E1,-2.066901855E0,7.405004631E1
1.613012971E1,2.144410675E1,-7.519463196E1,2.866389313E0,7.824511855E1
1.614015571E1,1.615814896E1,-6.385256790E1,7.124284973E0,6.624946522E1
1.615018071E1,1.017284546E1,-3.404684921E1,5.944588165E0,3.602794547E1
1.616020671E1,7.847131805E0,-2.831122650E1,-1.993853760E-1,2.937929165E1
1.617023271E1,6.066584473E0,-2.169543411E1,-1.075962524E0,2.255333687E1
1.618025871E1,4.751269684E0,-1.460093719E1,-8.623567200E-1,1.537873823E1
1.619028471E1,3.796854401E0,-9.707612915E0,-9.132508850E-1,1.046364559E1
1.620031071E1,3.074157257E0,-5.815855865E0,-8.583151245E-1,6.634103341E0
1.621033671E1,4.202211456E0,-1.351689148E0,-5.370082855E0,6.951505919E0
1.622036271E1,1.376028534E1,1.203886505E1,-4.230158340E1,4.608365961E1
1.623038871E1,5.800288239E0,3.443589020E0,-8.434660034E0,1.080023791E1
1.624041371E1,1.495540009E0,-3.802093506E-1,1.929038544E0,2.470301352E0
1.625043971E1,2.226919098E0,5.748046875E-1,-1.580263824E0,2.790484340E0
1.626046571E1,1.751058655E0,-1.636097717E-1,3.490740967E-1,1.792993947E0
1.627049171E1,1.872905273E0,-3.695814514E-1,5.499563599E-1,1.986659661E0
1.628051771E1,1.879491577E0,-6.101312256E-1,1.065484314E0,2.244995662E0
1.629054371E1,1.897603912E0,-9.142987061E-1,2.395767975E0,3.190070050E0
1.630056971E1,2.387834473E0,-1.310075684E0,5.354215851E0,6.007135685E0
1.631059571E1,3.177592163E0,-2.263892212E0,5.053341522E0,6.384243138E0
1.632062071E1,2.949765930E0,-3.336262207E0,4.551285553E0,6.367571338E0
1.633064671E1,2.572101288E0,-3.851041718E0,4.989424438E0,6.807391833E0
1.634067271E1,2.141147461E0,-4.383484497E0,4.277504883E0,6.488181317E0
1.635069871E1,1.734742584E0,-4.997956696E0,3.322939911E0,6.247466096E0
1.636072471E1,1.573527832E0,-5.637127533E0,2.298769684E0,6.287888256E0
1.637075071E1,1.538350983E0,-6.639443207E0,9.833052063E-1,6.885900012E0
1.638077671E1,1.643282776E0,-8.102051697E0,3.535647583E-1,8.274577211E0
1.639080271E1,1.745520172E0,-1.034468811E1,-2.839595032E-1,1.049476278E1
1.640082871E1,1.920655975E0,-1.320374268E1,-9.502239990E-1,1.337649676E1
1.641085371E1,2.067650299E0,-1.656769730E1,-1.950593719E0,1.680977654E1
1.642087971E1,1.104702759E0,-2.064521805E1,-5.678890686E0,2.144050363E1
1.643090571E1,1.233135681E0,-2.161999100E1,-6.245462494E0,2.253775579E1
1.644093171E1,2.273771667E0,-1.996233810E1,-3.154540100E0,2.033755402E1
1.645095771E1,2.376009064E0,-1.734503082E1,-9.744735718E-1,1.753411281E1
1.646098371E1,2.297422485E0,-1.392389511E1,1.178050232E0,1.416124315E1
1.647100971E1,1.934876404E0,-1.130194748E1,3.594026184E0,1.201643823E1
1.648103571E1,1.431772614E0,-9.634564819E0,3.866010590E0,1.047954436E1
1.649106171E1,1.294957123E0,-8.507259064E0,2.649340668E0,9.003853436E0
1.650108671E1,1.347797241E0,-7.574698334E0,1.793570251E0,7.899968766E0
1.651111271E1,1.453926544E0,-6.935527496E0,1.468745728E0,7.236895609E0
1.652113871E1,1.714534607E0,-7.032974854E0,1.143472137E0,7.328703346E0
