"Time (s)","Acceleration x (m/s^2)","Acceleration y (m/s^2)","Acceleration z (m/s^2)","Absolute acceleration (m/s^2)"
-2.126374980E-3,-7.939190369E0,-5.828878784E-1,-5.585185547E0,9.724443407E0
7.899624994E-3,-8.192763062E0,-2.915936279E-1,-5.721252594E0,9.996955770E0
1.792462496E-2,-8.295449524E0,-1.555265808E-1,-5.889203339E0,1.017454605E1
2.795062505E-2,-8.376281433E0,-8.726852417E-2,-5.946983185E0,1.027308695E1
3.797662503E-2,-8.547225952E0,-1.929487610E-1,-5.530399475E0,1.018222073E1
4.800162499E-2,-8.828191681E0,-4.650828552E-1,-4.697681122E0,1.001106779E1
5.802762497E-2,-8.933422852E0,-6.858737183E-1,-4.095333710E0,9.851305741E0
6.805262505E-2,-8.747958527E0,-7.587721252E-1,-4.033661957E0,9.662967572E0
7.807862503E-2,-8.393944702E0,-7.833210754E-1,-4.317471771E0,9.471666277E0
8.810462500E-2,-8.415948944E0,-8.466394043E-1,-4.483626251E0,9.573290932E0
9.812962497E-2,-8.635691986E0,-8.913963318E-1,-4.507426758E0,9.781955810E0
1.081556251E-1,-8.776998138E0,-9.300160217E-1,-4.415068817E0,9.868812430E0
1.181816250E-1,-8.760083313E0,-8.680448914E-1,-4.551884308E0,9.910207482E0
1.282066250E-1,-8.624016266E0,-8.125103760E-1,-4.646487579E0,9.829734304E0
1.382326250E-1,-8.477770386E0,-8.099656677E-1,-4.572541351E0,9.666269679E0
1.482576251E-1,-8.395591278E0,-8.348139954E-1,-4.569547577E0,9.594979540E0
1.582836250E-1,-8.416398010E0,-8.617579651E-1,-4.536017303E0,9.599678913E0
1.683096250E-1,-8.515791321E0,-8.411009216E-1,-4.307143250E0,9.580064486E0
1.783346250E-1,-8.620423737E0,-7.032376099E-1,-4.008663940E0,9.532871295E0
1.883606251E-1,-8.775950317E0,-4.872367859E-1,-3.816912689E0,9.582459295E0
1.983856250E-1,-9.046288147E0,-3.442840576E-1,-3.801345062E0,9.818558195E0
2.084116250E-1,-9.365125122E0,-2.288740540E-1,-3.840413818E0,1.012456074E1
2.184376250E-1,-9.630672913E0,-1.574725342E-1,-3.866908722E0,1.037919271E1
2.284626251E-1,-9.817634125E0,-1.625619507E-1,-3.905378723E0,1.056713533E1
2.384886250E-1,-9.823322296E0,-1.293310547E-1,-3.960015106E0,1.059226638E1
2.485146250E-1,-9.661658478E0,-6.601272583E-2,-3.992198181E0,1.045416895E1
2.585396250E-1,-9.327553253E0,4.206253052E-2,-4.066144409E0,1.017538939E1
2.685656250E-1,-9.052724762E0,8.637039185E-2,-4.168681183E0,9.966804316E0
2.785906250E-1,-8.930429077E0,4.385879517E-2,-4.246968384E0,9.888944714E0
2.886166250E-1,-8.852141876E0,3.472778320E-2,-4.276007996E0,9.830862942E0
2.986426250E-1,-8.794362030E0,8.187973022E-2,-4.238885193E0,9.762973701E0
3.086676250E-1,-8.871451721E0,1.242416382E-1,-4.320615234E0,9.868424780E0
3.186936250E-1,-8.992250519E0,2.453398132E-1,-4.325405273E0,9.981477436E0
3.287186250E-1,-9.109756165E0,3.490740967E-1,-4.342020721E0,1.009765587E1
3.387446250E-1,-9.182504883E0,3.912863159E-1,-4.354295197E0,1.017012230E1
3.487706250E-1,-9.083560638E0,4.465214539E-1,-4.327201538E0,1.007150080E1
3.587956250E-1,-8.826694794E0,5.266049194E-1,-4.292773132E0,9.829331355E0
3.688216250E-1,-8.571176147E0,3.568579102E-1,-4.217330017E0,9.559198742E0
3.788476250E-1,-8.426277466E0,8.607101440E-2,-4.181255035E0,9.407042778E0
3.888726250E-1,-8.453371124E0,-1.332229614E-1,-4.242028656E0,9.458966056E0
3.988986250E-1,-8.634644165E0,-2.863545227E-1,-4.224066010E0,9.616746457E0
4.089236250E-1,-8.821306000E0,-2.692900085E-1,-4.203259277E0,9.775241440E0
4.189496250E-1,-8.899443512E0,-1.766326904E-1,-4.311783600E0,9.890539507E0
4.289756250E-1,-8.855135651E0,-4.161346436E-2,-4.385131073E0,9.881524862E0
4.390006250E-1,-8.882977753E0,-2.844085693E-2,-4.435426483E0,9.928802079E0
4.490266250E-1,-8.740923157E0,-4.490661621E-3,-4.401147766E0,9.786411981E0
4.590516250E-1,-8.422385559E0,2.365081787E-2,-4.384232941E0,9.495190169E0
4.690776250E-1,-8.386011200E0,-7.604187012E-2,-4.204007721E0,9.381079209E0
4.791036251E-1,-8.487949219E0,-2.354603577E-1,-3.915258179E0,9.350399463E0
4.891286250E-1,-8.568481750E0,-3.150947571E-1,-3.710484009E0,9.342689966E0
4.991546250E-1,-8.607400818E0,-3.260220337E-1,-3.664978638E0,9.360860410E0
5.091796250E-1,-8.663085022E0,-3.128494263E-1,-3.742218018E0,9.441986685E0
5.192056251E-1,-8.659791870E0,-2.534230042E-1,-3.862268372E0,9.485427530E0
5.292316250E-1,-8.597072296E0,-1.493893433E-1,-4.001927948E0,9.484060130E0
5.392566250E-1,-8.614136810E0,-1.287322998E-2,-4.174668732E0,9.572427995E0
5.492826250E-1,-8.641829224E0,7.304809570E-2,-4.292623444E0,9.649516277E0
5.593086251E-1,-8.657696228E0,1.477427673E-1,-4.331542511E0,9.681931234E0
5.693336250E-1,-8.646319885E0,1.514849854E-1,-4.340972900E0,9.676044697E0
5.793596250E-1,-8.661737823E0,-1.616638184E-2,-4.270020447E0,9.657071921E0
5.893846250E-1,-8.738977203E0,-1.833686829E-1,-4.202061768E0,9.698488013E0
5.994106251E-1,-8.771459656E0,-3.311114502E-1,-4.087998962E0,9.682968285E0
6.094366250E-1,-8.859476624E0,-4.793032837E-1,-3.936963043E0,9.706685103E0
6.194616250E-1,-9.035061493E0,-5.525010681E-1,-3.895499268E0,9.854567883E0
6.294876250E-1,-9.191635895E0,-4.902305603E-1,-4.028422852E0,1.004762097E1
6.395126251E-1,-9.279353485E0,-3.725752258E-1,-4.168830872E0,1.017960531E1
6.495386250E-1,-9.381890259E0,-2.969824219E-1,-4.279450836E0,1.031609242E1
6.595646250E-1,-9.415719910E0,-2.763253784E-1,-4.313430176E0,1.036039657E1
6.695896250E-1,-9.395661621E0,-3.728746033E-1,-4.165986786E0,1.028459716E1
6.796156249E-1,-9.317524109E0,-5.466632080E-1,-3.965104523E0,1.014086535E1
6.896416250E-1,-9.145082703E0,-6.756948853E-1,-3.792513428E0,9.923318967E0
6.996666250E-1,-8.903335419E0,-7.086264038E-1,-3.658542023E0,9.651759564E0
7.096926250E-1,-8.728498993E0,-7.550299072E-1,-3.558100891E0,9.456048159E0
7.197176251E-1,-8.731792145E0,-7.563771057E-1,-3.476370850E0,9.428756793E0
7.297436250E-1,-8.760083313E0,-7.439529419E-1,-3.383863220E0,9.420353280E0
7.397696250E-1,-8.776848450E0,-6.740483093E-1,-3.350332947E0,9.418712263E0
7.497946250E-1,-8.834478607E0,-5.658233643E-1,-3.400628357E0,9.483271670E0
7.598206250E-1,-8.963360596E0,-3.623963928E-1,-3.390599213E0,9.590063990E0
7.698456250E-1,-9.053622894E0,-1.686991882E-1,-3.389850769E0,9.668900411E0
7.798716250E-1,-9.192234650E0,-6.152206421E-2,-3.520678711E0,9.843583768E0
7.898976250E-1,-9.334738312E0,-2.649490356E-2,-3.809278564E0,1.008209524E1
7.999226250E-1,-9.435329132E0,-7.439529419E-2,-4.067491608E0,1.027499190E1
8.099486250E-1,-9.425150299E0,-1.362167358E-1,-4.115691376E0,1.028547173E1
8.199746250E-1,-9.335935822E0,-2.110610962E-1,-4.007017365E0,1.016171406E1
8.299996250E-1,-9.207053833E0,-2.760260010E-1,-3.779789886E0,9.956547706E0
8.400256250E-1,-9.136251068E0,-2.712359619E-1,-3.528761902E0,9.797796338E0
8.500506250E-1,-8.986412659E0,-2.216889954E-1,-3.401825867E0,9.611304683E0
8.600766250E-1,-8.816815338E0,-2.151026917E-1,-3.415148163E0,9.457575738E0
8.701026250E-1,-8.787476349E0,-2.303709412E-1,-3.456462250E0,9.445630876E0
8.801276250E-1,-8.776399384E0,-2.177970886E-1,-3.495531006E0,9.449410496E0
8.901536250E-1,-8.806636505E0,-2.097138977E-1,-3.499422913E0,9.478754516E0
9.001786250E-1,-8.843310242E0,-1.995350647E-1,-3.494632874E0,9.510857437E0
9.102046250E-1,-8.754993896E0,-2.209405518E-1,-3.495231628E0,9.429495055E0
9.202306250E-1,-8.731492767E0,-3.112028503E-1,-3.498973846E0,9.411622131E0
9.302556250E-1,-8.735534363E0,-3.908372498E-1,-3.420686646E0,9.389537341E0
9.402816250E-1,-8.742569733E0,-5.294490051E-1,-3.225642242E0,9.333681463E0
9.503076250E-1,-8.738079071E0,-6.502478027E-1,-2.900668030E0,9.229882073E0
9.603326250E-1,-8.659642181E0,-7.973918152E-1,-2.575544128E0,9.069656221E0
9.703586251E-1,-8.499325562E0,-9.666897583E-1,-2.291285248E0,8.855676833E0
9.803836250E-1,-8.212222595E0,-1.180145874E0,-1.945953369E0,8.521741533E0
9.904096250E-1,-7.879913635E0,-1.516945496E0,-1.808239746E0,8.225806557E0
1.000435250E0,-7.461683350E0,-1.843266907E0,-1.618883514E0,7.854625079E0
1.010460250E0,-6.938521271E0,-2.061213684E0,-1.259331207E0,7.346944560E0
1.020486250E0,-6.351891174E0,-2.075583801E0,-7.804769897E-1,6.727831295E0
1.030511250E0,-5.664969635E0,-1.837279358E0,-4.959187317E-1,5.976069929E0
1.040537250E0,-5.102888489E0,-1.460662537E0,-5.062472534E-1,5.331912626E0
1.050563250E0,-4.701872406E0,-8.692424011E-1,-7.628137207E-1,4.842011075E0
1.060588250E0,-4.394262085E0,-2.565664673E-1,-1.044827271E0,4.524050138E0
1.070614250E0,-4.225562897E0,2.601589966E-1,-1.246757355E0,4.413328494E0
1.080639250E0,-4.135450287E0,6.982978821E-1,-1.444047089E0,4.435633100E0
1.090665250E0,-4.136797485E0,1.021625519E0,-1.617536316E0,4.557766544E0
1.100691250E0,-4.297114105E0,1.186881866E0,-1.769170990E0,4.796232291E0
1.110716250E0,-4.753515015E0,1.004411316E0,-1.865271149E0,5.204227469E0
1.120742250E0,-5.457351379E0,5.712121582E-1,-1.820813599E0,5.781377826E0
1.130768250E0,-6.155200195E0,1.496887207E-2,-1.525777130E0,6.341506868E0
1.140793250E0,-6.800957336E0,-6.301895142E-1,-1.168619843E0,6.929345702E0
1.150819250E0,-7.256011047E0,-1.271156616E0,-7.536827087E-1,7.404969486E0
1.160844250E0,-7.581733704E0,-1.842817841E0,-3.290158081E-1,7.809411946E0
1.170870250E0,-7.881709900E0,-2.409689026E0,2.791694641E-1,8.246568240E0
1.180896250E0,-8.307723999E0,-2.737058258E0,9.440867615E-1,8.797787549E0
1.190921250E0,-8.974587250E0,-2.432441711E0,9.388476562E-1,9.345663374E0
1.200947250E0,-9.656119995E0,-1.625619507E0,2.938389587E-1,9.796409213E0
1.210972250E0,-1.039528290E1,-8.675958252E-1,-7.872129822E-1,1.046108662E1
1.220998250E0,-1.130973129E1,-6.303392029E-1,-2.186652832E0,1.153641192E1
1.231024250E0,-1.221265366E1,-6.951544189E-1,-3.496129761E0,1.272222749E1
1.241049250E0,-1.310943878E1,-6.550378418E-1,-4.711452484E0,1.394576080E1
1.251075250E0,-1.414393753E1,-3.403921509E-1,-6.625522156E0,1.562255995E1
1.261101250E0,-1.588631424E1,1.004411316E-1,-1.044243484E1,1.901129964E1
1.271126250E0,-1.819840622E1,8.981323242E-3,-1.363978592E1,2.274259944E1
1.281152250E0,-2.056408676E1,-7.487429810E-1,-1.325972626E1,2.447984111E1
1.291177250E0,-2.214135681E1,-1.619931335E0,-1.032986893E1,2.448611956E1
1.301203250E0,-2.346310822E1,-2.540217590E0,-8.399034119E0,2.505022808E1
1.311229250E0,-2.508378799E1,-3.397335205E0,-7.534432068E0,2.641033838E1
1.321254250E0,-2.685999435E1,-3.754342804E0,-6.359824677E0,2.785680808E1
1.331280250E0,-2.875505356E1,-3.451821899E0,-5.480403442E0,2.947546440E1
1.341306250E0,-3.054817474E1,-2.512824554E0,-4.664450226E0,3.100423138E1
1.351331250E0,-3.210029709E1,-1.536554718E0,-3.681893463E0,3.234727829E1
1.361357250E0,-3.356051056E1,-6.415658569E-1,-3.097957764E0,3.370929869E1
1.371382250E0,-3.448753281E1,2.165995789E-1,-3.178041229E0,3.463432951E1
1.381408250E0,-3.395224594E1,4.803511047E-1,-4.118685150E0,3.420452176E1
1.391434250E0,-3.196228409E1,2.436932373E-1,-6.242319031E0,3.256706215E1
1.401459250E0,-2.847109406E1,-6.381230164E-1,-1.140119110E1,3.067568347E1
1.411485250E0,-2.435704926E1,-2.189496918E0,-1.780622177E1,3.025097154E1
1.421510250E0,-2.119637192E1,-3.585643616E0,-1.523636581E1,2.634938075E1
1.431536250E0,-1.990949799E1,-3.648213501E0,-7.202123108E0,2.148413715E1
1.441562250E0,-1.803329956E1,-3.062780914E0,-2.898871765E0,1.851982661E1
1.451587250E0,-1.436577621E1,-2.507286072E0,-7.402107239E-1,1.460170954E1
1.461613250E0,-1.093790451E1,-1.676513672E0,-2.040257263E-1,1.106752365E1
1.471639250E0,-7.914192352E0,-8.452922058E-1,-4.478686523E-1,7.971796901E0
1.481664250E0,-5.350773010E0,-3.219804382E-1,-4.308041382E-1,5.377735157E0
1.491690250E0,-3.335364075E0,-1.920506287E-1,-2.763253784E-1,3.352296626E0
1.501715250E0,-1.901944885E0,-2.101629639E-1,-2.448907471E-1,1.929127859E0
1.511741250E0,-1.052611084E0,-1.609153748E-1,-1.166075134E-1,1.071205472E0
1.521767250E0,-5.367837524E-1,2.993774414E-3,-1.902543640E-1,5.695107397E-1
1.531792250E0,-1.625619507E-1,1.907034302E-1,-5.010081482E-1,5.601815337E-1
1.541818250E0,2.237846375E-1,3.038681030E-1,-7.418572998E-1,8.323266434E-1
1.551843250E0,7.911048889E-1,3.951782227E-1,-6.496490479E-1,1.097295156E0
1.561869250E0,1.559157715E0,4.357438660E-1,-9.295669556E-2,1.621569130E0
1.571895250E0,2.455493774E0,4.561015320E-1,8.068222046E-1,2.624583844E0
1.581920250E0,3.639531555E0,5.617817688E-1,2.285297699E0,4.334094400E0
1.591946250E0,4.701872406E0,4.989125061E-1,3.968098297E0,6.172707826E0
1.601972250E0,4.991220703E0,4.966671753E-1,4.296964417E0,6.604760827E0
1.611997250E0,4.948858795E0,4.794529724E-1,4.054169312E0,6.415400793E0
1.622023250E0,4.929998016E0,4.466711426E-1,3.974235535E0,6.348144897E0
1.632048250E0,4.543501740E0,1.368154907E-1,3.573069763E0,5.781777760E0
1.642074250E0,3.949087830E0,-1.817221069E-1,2.716850281E0,4.796831564E0
1.652100250E0,3.569028168E0,-5.432203674E-1,2.144290924E0,4.198932483E0
1.662125250E0,3.449726257E0,-9.684860229E-1,1.820663910E0,4.019128450E0
1.672151250E0,3.534749451E0,-1.213676147E0,1.707199860E0,4.108770477E0
1.682176250E0,3.585044861E0,-1.336720276E0,1.155147858E0,3.996715442E0
1.692202250E0,3.615431671E0,-1.237776031E0,5.013075256E-1,3.854185375E0
1.702228250E0,3.872746582E0,-9.147477722E-1,-6.481521606E-2,3.979840523E0
1.712253250E0,3.965852966E0,-5.993536377E-1,-5.469625854E-1,4.048009709E0
1.722279250E0,3.947590942E0,-4.314028931E-1,-1.119372253E0,4.125842574E0
1.732304250E0,4.049828339E0,-2.553689575E-1,-1.795516205E0,4.437364231E0
1.742330250E0,4.105811920E0,-3.981719971E-2,-2.222278748E0,4.668811387E0
1.752356250E0,4.063150635E0,1.628613281E-1,-2.329306183E0,4.686297492E0
1.762381250E0,3.872596893E0,3.429368591E-1,-2.259850616E0,4.496836354E0
1.772407250E0,3.527265015E0,4.331991577E-1,-2.245031433E0,4.203501651E0
1.782433250E0,3.277284851E0,5.153782654E-1,-1.970652008E0,3.858714823E0
1.792458250E0,2.955005035E0,4.987628174E-1,-1.391057281E0,3.303915778E0
1.802484250E0,2.426603851E0,3.162922668E-1,-6.372248840E-1,2.528735376E0
1.812509250E0,1.447639618E0,1.399589539E-1,-3.463796997E-1,1.495067847E0
1.822535250E0,4.399351501E-1,-4.819976807E-2,-4.278103638E-1,6.155386757E-1
1.832561250E0,-6.911128235E-1,-2.665956116E-1,-4.116439819E-1,8.474437579E-1
1.842586250E0,-3.456911316E0,-4.815486145E-1,-1.634600830E-1,3.494115641E0
1.852612250E0,-6.278244324E0,-1.911524963E-1,-8.577163696E-2,6.281739237E0
1.862637250E0,-7.533983002E0,3.138972473E-1,-1.500479736E0,7.688359434E0
1.872663250E0,-4.893773346E0,5.162763977E-1,-3.038980408E0,5.783680558E0
1.882689250E0,-1.422342224E0,3.522175598E-1,-3.403472443E0,3.705501218E0
1.892714250E0,-3.490740967E-1,2.559677124E-2,-3.026406555E0,3.046579157E0
1.902740250E0,-1.652563477E-1,-3.197351074E-1,-1.661245422E0,1.699787208E0
1.912766250E0,-5.492079163E-1,-5.354365540E-1,-7.704478455E-1,1.087157542E0
1.922791250E0,-1.191522217E0,-8.795709229E-1,-3.158432007E-2,1.481339857E0
1.932817250E0,-7.782316589E-1,-1.475332031E0,1.774709473E0,2.435537483E0
1.942842250E0,3.002606049E0,-1.532962189E0,5.995632019E0,6.878460545E0
1.952868250E0,8.975036316E0,-1.201701050E0,1.209993805E1,1.511303620E1
1.962894250E0,1.464404755E1,-5.391787720E-1,1.794034286E1,2.316451477E1
1.972919250E0,1.358544891E1,4.989125061E-1,1.748723511E1,2.214986970E1
1.982945250E0,9.129814453E0,3.149450684E0,1.612656464E1,1.879730402E1
1.992970250E0,6.859934692E0,4.239034882E0,2.294847839E1,2.432407822E1
2.002997000E0,-2.693483871E1,5.908812561E0,4.013468948E1,4.869489606E1
2.013023000E0,-7.432598831E1,9.554631042E-1,7.071010757E1,1.025923231E2
2.023048000E0,-9.276868652E1,7.991731110E0,8.902078033E1,1.288200151E2
2.033074000E0,-5.325131332E1,6.656657410E-1,6.979580887E1,8.779294059E1
2.043100000E0,-3.279619995E1,-5.042264557E0,2.644356033E1,4.242967177E1
2.053125000E0,-1.793839691E1,-2.727927246E0,1.174158325E1,2.161232167E1
2.063151000E0,-8.569828949E0,-1.525028687E0,6.711593170E0,1.099150416E1
2.073176000E0,-3.357368317E0,-2.049238586E-1,4.329297180E0,5.482401835E0
2.083202000E0,-8.978329468E-1,7.649093628E-2,2.777923279E0,2.920413088E0
2.093228000E0,2.064207458E-1,-4.984634399E-2,1.698817291E0,1.712038075E0
2.103253000E0,8.834628296E-1,3.412902832E-2,1.206940155E0,1.496120282E0
2.113279000E0,1.155147858E0,8.367599487E-2,8.316705322E-1,1.425848561E0
2.123305000E0,1.228195953E0,8.023315430E-2,7.354206848E-1,1.433787377E0
2.133330000E0,1.304686890E0,8.592132568E-2,7.237449646E-1,1.494455462E0
2.143356000E0,1.397942963E0,5.358856201E-2,8.789721680E-1,1.652182899E0
2.153381000E0,1.398691406E0,-3.412902832E-2,9.189390564E-1,1.673903053E0
2.163407000E0,1.210682373E0,-1.893562317E-1,9.108558655E-1,1.526848388E0
2.173433000E0,8.107141113E-1,-4.544549561E-1,1.081201630E0,1.425757217E0
2.183458000E0,9.325607300E-2,-7.824229431E-1,1.285826111E0,1.508055418E0
2.193484000E0,-8.135581970E-1,-1.057850189E0,1.700463867E0,2.161596939E0
2.203509000E0,-1.668879547E0,-1.284179535E0,2.248324585E0,3.080460917E0
2.213535000E0,-2.291884003E0,-1.457070007E0,3.050057373E0,4.083948490E0
2.223561000E0,-2.670147400E0,-1.504521332E0,3.861070862E0,4.929618624E0
2.233586000E0,-2.901266785E0,-1.424288177E0,4.153412933E0,5.262773486E0
2.243612000E0,-3.005450134E0,-1.246607666E0,3.961961060E0,5.126782287E0
2.253638000E0,-3.109034729E0,-1.003812561E0,3.731590118E0,4.959687633E0
2.263663000E0,-3.349734192E0,-7.008425903E-1,3.818409576E0,5.127587268E0
2.273689000E0,-3.795956268E0,-3.887416077E-1,4.239034882E0,5.703491979E0
2.283714000E0,-4.317022705E0,-2.134561157E-1,4.961432648E0,6.580126326E0
2.293740000E0,-4.945865021E0,-1.525328064E-1,5.533692627E0,7.423382056E0
2.303766000E0,-5.843099213E0,-2.095642090E-1,6.178851013E0,8.506698855E0
2.313791000E0,-6.870263214E0,-4.775070190E-1,6.727609863E0,9.627526373E0
2.323817000E0,-7.924221497E0,-7.834707642E-1,7.128775635E0,1.068768239E1
2.333843000E0,-9.540859680E0,-1.159638519E0,7.706125031E0,1.231897430E1
2.343868000E0,-1.130149841E1,-1.764979706E0,8.626710663E0,1.432686835E1
2.353894000E0,-1.281200729E1,-2.260748749E0,9.826465759E0,1.630392422E1
2.363919000E0,-1.394170807E1,-2.495310974E0,1.074016571E1,1.777495317E1
2.373945000E0,-1.436847061E1,-2.186652832E0,1.105870331E1,1.826278503E1
2.383971000E0,-1.496168701E1,-1.806293793E0,1.053793625E1,1.838920542E1
2.393996000E0,-1.560190567E1,-1.600172424E0,9.162296906E0,1.816391194E1
2.404022000E0,-1.559262497E1,-1.273551636E0,6.097120972E0,1.679067513E1
2.414047000E0,-1.490749969E1,-9.970765686E-1,3.554807739E0,1.535787638E1
2.424073000E0,-1.321856186E1,-7.566764832E-1,2.641407166E0,1.350110991E1
2.434099000E0,-1.097308136E1,-3.049159241E-1,2.505040741E0,1.125951675E1
2.444124000E0,-9.224567413E0,1.197509766E-3,2.351909180E0,9.519670277E0
2.454150000E0,-7.979905701E0,7.559280396E-2,2.416425018E0,8.338088458E0
2.464176000E0,-7.094047852E0,1.137634277E-1,2.652633820E0,7.574623635E0
2.474201000E0,-6.244115295E0,3.981719971E-2,2.996319122E0,6.925928784E0
2.484227000E0,-5.556894379E0,1.050814819E-1,3.140020294E0,6.383560503E0
2.494252000E0,-4.831502838E0,2.320175171E-1,3.171604614E0,5.784144503E0
2.504278000E0,-4.355941772E0,3.023712158E-1,3.171305237E0,5.396557605E0
2.514304000E0,-4.108506317E0,3.595523071E-1,3.302282867E0,5.283386618E0
2.524329000E0,-4.030518494E0,3.549119568E-1,3.719165955E0,5.495747194E0
2.534355000E0,-4.170178070E0,3.288661194E-1,4.349355469E0,6.034519952E0
2.544380000E0,-4.469555511E0,2.796185303E-1,5.105133820E0,6.790986991E0
2.554406000E0,-4.848866730E0,1.748364258E-1,5.908213806E0,7.645198933E0
2.564432000E0,-5.238805847E0,6.616241455E-2,6.757846985E0,8.550904048E0
2.574457000E0,-5.656587067E0,-1.841171265E-2,7.525600433E0,9.414455806E0
2.584483000E0,-5.797893219E0,-1.664538574E-1,8.272996216E0,1.010374876E1
2.594509000E0,-5.196443939E0,-2.085163879E-1,8.106542358E0,9.631331045E0
2.604534000E0,-4.191733246E0,-1.686991882E-1,7.084467773E0,8.233393629E0
2.614560000E0,-3.366349640E0,-3.170407104E-1,6.154601440E0,7.022246336E0
2.624585000E0,-2.743345184E0,-4.845423889E-1,5.359604645E0,6.040371352E0
2.634611000E0,-2.277364197E0,-5.758525085E-1,4.541106720E0,5.112694401E0
2.644637000E0,-1.927242279E0,-5.101391602E-1,3.779340820E0,4.272928949E0
2.654662000E0,-1.637145538E0,-3.707789612E-1,3.015030212E0,3.450815807E0
2.664688000E0,-1.414109344E0,-2.930905151E-1,2.314936066E0,2.728467752E0
2.674714000E0,-1.254840546E0,-2.095642090E-1,1.641336823E0,2.076662832E0
2.684739000E0,-1.098116455E0,-1.841171265E-1,1.076112213E0,1.548475496E0
2.694765000E0,-9.415420532E-1,-1.606159973E-1,6.258485413E-1,1.141921772E0
2.704790000E0,-7.023394775E-1,-1.279838562E-1,3.234773254E-1,7.837717711E-1
2.714816000E0,-4.911286926E-1,-1.019380188E-1,1.410067749E-1,5.210390225E-1
2.724842000E0,-3.929328918E-1,-1.499880981E-1,1.683998108E-1,4.530465576E-1
2.734867000E0,-4.590953064E-1,-2.924917603E-1,4.409829712E-1,7.005611401E-1
2.744893000E0,-1.075064392E0,-5.596861267E-1,9.928852844E-1,1.566790731E0
2.754918000E0,-2.888543243E0,-1.190474396E0,2.661914520E0,4.104473202E0
2.764944000E0,-5.602100372E0,-1.796114960E0,5.340294800E0,7.945332345E0
2.774970000E0,-9.925110626E0,-1.867965546E0,8.403375092E0,1.313825822E1
2.784995000E0,-1.737152573E1,-1.503024445E0,1.132694550E1,2.079251507E1
2.795021000E0,-2.593536713E1,-7.298822021E-1,1.357392288E1,2.928186091E1
2.805047000E0,-3.052572144E1,-6.487509155E-1,1.533216660E1,3.416600473E1
2.815072000E0,-2.782204376E1,-2.484234009E0,1.843686035E1,3.346872208E1
2.825098000E0,-2.250764511E1,-3.433859253E0,2.264910095E1,3.211490700E1
2.835123000E0,-1.829809891E1,-3.338208160E0,2.413835403E1,3.047333577E1
2.845149000E0,-1.540222092E1,-2.332000580E0,2.271481430E1,2.754322829E1
2.855175000E0,-1.484118759E1,-8.818162537E-1,2.088247467E1,2.563427778E1
2.865200000E0,-1.655751846E1,-6.586303711E-2,2.133034332E1,2.700257954E1
2.875226000E0,-1.969948471E1,-1.038839722E-1,2.245091309E1,2.986844469E1
2.885252000E0,-2.321746902E1,-8.512797546E-1,2.244492554E1,3.230402804E1
2.895277000E0,-2.565799393E1,-2.184257813E0,2.105282043E1,3.326146243E1
2.905303000E0,-2.773672119E1,-3.621718597E0,2.056887680E1,3.472061694E1
2.915328000E0,-2.923705124E1,-4.052073669E0,1.960757584E1,3.543559646E1
2.925354000E0,-2.943718506E1,-3.384911041E0,1.739382935E1,3.435914414E1
2.935380000E0,-2.905727509E1,-1.486858063E0,1.583991074E1,3.312761317E1
2.945405000E0,-2.775827637E1,7.634124756E-1,1.466545303E1,3.140350646E1
2.955431000E0,-2.485685989E1,2.158661041E0,1.298744247E1,2.812822361E1
2.965457000E0,-2.216351074E1,2.512974243E0,1.081545914E1,2.478932037E1
2.975482000E0,-1.886931107E1,3.376678162E0,8.659193115E0,2.103412658E1
2.985508000E0,-1.336825058E1,4.019142151E0,6.982380066E0,1.560824329E1
2.995532750E0,-8.833580475E0,2.942730560E0,5.310506744E0,1.071882872E1
3.005558750E0,-5.863606567E0,1.614392853E0,4.302353210E0,7.449724116E0
3.015584750E0,-3.531007233E0,6.875202942E-1,3.772455139E0,5.212687791E0
3.025609750E0,-1.550326080E0,-1.698966980E-1,2.869981842E0,3.266369792E0
3.035635750E0,-3.941304016E-1,-5.480104065E-1,1.901944885E0,2.018179508E0
3.045660750E0,3.231779480E-1,-3.827540588E-1,1.540895691E0,1.620279046E0
3.055686750E0,1.022673340E0,-1.974394226E-1,1.836231537E0,2.111063557E0
3.065712750E0,1.762734375E0,-7.155120850E-2,2.323468323E0,2.917337330E0
3.075737750E0,2.361938324E0,-1.381626892E-1,2.798580322E0,3.664681895E0
3.085763750E0,2.839744720E0,-3.149450684E-1,3.168461151E0,4.266437219E0
3.095789750E0,3.105891266E0,-4.007167053E-1,3.555256805E0,4.737824964E0
3.105814750E0,3.423979797E0,-4.734654236E-1,3.898193665E0,5.209963628E0
3.115840750E0,3.723955994E0,-5.330415344E-1,3.990551605E0,5.484203099E0
3.125866750E0,3.928879852E0,-5.846841431E-1,4.485422516E0,5.991407813E0
3.135891750E0,4.278552704E0,-6.936575317E-1,5.018014984E0,6.630810538E0
3.145917750E0,4.396806793E0,-7.903564453E-1,5.026846619E0,6.725010053E0
3.155942750E0,4.001179504E0,-8.707392883E-1,4.418661346E0,6.024300161E0
3.165968750E0,3.503614197E0,-6.454577637E-1,3.661685486E0,5.108803065E0
3.175994750E0,3.017574921E0,-4.052073669E-1,2.791994019E0,4.131002543E0
3.186019750E0,2.551743622E0,-2.850073242E-1,2.150128784E0,3.348981707E0
3.196045750E0,2.249372406E0,-2.808160400E-1,1.641935577E0,2.799015239E0
3.206070750E0,1.999242554E0,-3.905378723E-1,1.185235291E0,2.356750583E0
3.216096750E0,1.770069122E0,-4.564009094E-1,8.050259399E-1,1.997376592E0
3.226122750E0,1.614243164E0,-5.599855042E-1,4.740641785E-1,1.773161471E0
3.236147750E0,1.622775421E0,-6.230044556E-1,1.416055298E-1,1.744014548E0
3.246173750E0,1.832489319E0,-6.542893982E-1,-7.589218140E-2,1.947272796E0
3.256199750E0,1.992805939E0,-6.988966370E-1,-1.399589539E-1,2.116440532E0
3.266224750E0,2.232307892E0,-7.048841858E-1,-3.625460815E-1,2.368860465E0
3.276250750E0,2.558479614E0,-6.177653503E-1,-5.285508728E-1,2.684551730E0
3.286275750E0,2.843187561E0,-4.701722717E-1,-5.565426636E-1,2.935049780E0
3.296301750E0,2.979104919E0,-3.987707520E-1,-3.932322693E-1,3.031289470E0
3.306327750E0,2.957549744E0,-4.590953064E-1,-2.213896179E-1,3.001146839E0
3.316352750E0,2.946173401E0,-4.460723877E-1,-9.430389404E-3,2.979766302E0
3.326378750E0,2.902164917E0,-3.399430847E-1,2.891986084E-1,2.936283083E0
3.336403750E0,2.887495422E0,-1.643582153E-1,5.471122742E-1,2.943463144E0
3.346429750E0,2.743943939E0,7.783813477E-3,6.188131714E-1,2.812866629E0
3.356455750E0,2.482437744E0,9.535171509E-2,4.549040222E-1,2.525574543E0
3.366480750E0,2.226170654E0,1.264869690E-1,1.279838562E-1,2.233431128E0
3.376506750E0,1.931134186E0,1.387614441E-1,-2.017803955E-1,1.946599422E0
3.386532750E0,1.653611298E0,1.348695374E-1,-5.460644531E-1,1.746655805E0
3.396557750E0,1.412762146E0,1.381626892E-1,-8.174501038E-1,1.638050818E0
3.406583750E0,1.184636536E0,1.261875916E-1,-1.029409332E0,1.574474707E0
3.416608750E0,1.070873108E0,1.618135071E-1,-1.146166534E0,1.576911712E0
3.426634750E0,1.038091278E0,2.484832764E-1,-1.093775482E0,1.528306987E0
3.436660750E0,8.268804932E-1,5.448669434E-2,-8.810678101E-1,1.209537364E0
3.446685750E0,6.767427063E-1,-1.115180969E-1,-8.716374207E-1,1.109129735E0
3.456711750E0,5.688171387E-1,-4.146377563E-2,-1.095122681E0,1.234733116E0
3.466737750E0,3.251239014E-1,-6.032455444E-2,-1.157542877E0,1.203848045E0
3.476762750E0,1.342707825E-1,-7.394622803E-2,-1.063388672E0,1.074379893E0
3.486788750E0,6.586303711E-3,-4.580474854E-2,-8.216413879E-1,8.229435125E-1
3.496813750E0,-1.784289551E-1,-6.586303711E-3,-3.785627747E-1,4.185570998E-1
3.506839750E0,-2.754272461E-1,-1.947450256E-1,8.351133728E-1,9.006664967E-1
3.516865750E0,-1.905537415E-1,-6.530918884E-1,5.584137726E0,5.625427440E0
3.526890750E0,-6.098318481E-1,-1.195264435E0,9.795929260E0,9.887405222E0
3.536916750E0,-1.889071655E0,-1.341959381E0,5.320835266E0,5.803510543E0
3.546942750E0,-2.915966217E1,-1.584155731E0,4.204157410E0,2.950373513E1
3.556967750E0,-1.061809456E2,-6.658603363E0,4.843013901E1,1.168940057E2
3.566993750E0,-1.399341055E2,-4.147874451E0,6.455116516E1,1.541609927E2
3.577018750E0,-8.494595398E1,1.354308701E1,2.619627457E1,8.991926993E1
3.587044750E0,-6.022950211E1,7.178023224E0,1.145492935E1,6.172788955E1
3.597070750E0,-3.183504868E1,3.426973572E0,-9.864037628E0,3.350393574E1
3.607095750E0,-6.731501770E0,5.380261688E0,-3.353401566E1,3.462355467E1
3.617121750E0,2.255898834E1,5.546116791E0,-6.232454544E1,6.651327936E1
3.627147750E0,1.598525848E0,-3.412902832E-2,-1.316182983E1,1.325859021E1
3.637172750E0,-8.948691101E0,-1.463356934E0,4.014651489E-1,9.076434333E0
3.647198750E0,-6.557563477E0,-1.861379242E0,2.276915131E0,7.186843114E0
3.657223750E0,-5.454507294E0,-2.164349213E0,2.747536469E0,6.479584398E0
3.667249750E0,-3.964056702E0,-2.013163605E0,2.276166687E0,4.994748044E0
3.677275750E0,-2.791395264E0,-1.741478577E0,2.228865051E0,3.973974656E0
3.687300750E0,-1.822609863E0,-1.316512299E0,2.088157654E0,3.068470911E0
3.697326750E0,-1.250050507E0,-8.385562134E-1,2.061662750E0,2.552695847E0
3.707352750E0,-9.858499146E-1,-3.085084534E-1,1.931882629E0,2.190718607E0
3.717377750E0,-1.058598633E0,1.453477478E-1,1.669029236E0,1.981770830E0
3.727403750E0,-1.339414673E0,4.748126221E-1,1.375190277E0,1.977530528E0
3.737428750E0,-1.812580719E0,6.453080750E-1,1.134939880E0,2.233821816E0
3.747454750E0,-2.258653107E0,7.566764832E-1,9.159452820E-1,2.552063658E0
3.757480750E0,-2.343526611E0,8.595126343E-1,8.713380432E-1,2.643881414E0
3.767505750E0,-2.208956451E0,9.505233765E-1,1.136586456E0,2.659851888E0
3.777531750E0,-2.010020142E0,9.047186279E-1,1.625320129E0,2.738678931E0
3.787557750E0,-1.750010834E0,6.550378418E-1,2.201322327E0,2.887461251E0
3.797582750E0,-1.568438416E0,2.040257263E-1,2.730621643E0,3.155617232E0
3.807608750E0,-1.890269165E0,-2.188449097E-1,3.133433990E0,3.665981340E0
3.817633750E0,-2.815195770E0,-6.483018494E-1,3.588338013E0,4.606711648E0
3.827659750E0,-4.145329742E0,-9.616003418E-1,4.349355469E0,6.084844031E0
3.837685750E0,-5.744753723E0,-1.062340851E0,5.353617096E0,7.924139034E0
3.847710750E0,-7.725285187E0,-8.979826355E-1,6.592440948E0,1.019542455E1
3.857736750E0,-1.030531998E1,-5.981561279E-1,7.983348541E0,1.304956951E1
3.867762750E0,-1.355131989E1,-2.480342102E-1,9.517208862E0,1.656131203E1
3.877787750E0,-1.734787491E1,2.330653381E-1,1.060260178E1,2.033268914E1
3.887813750E0,-2.005754013E1,8.047265625E-1,1.073148376E1,2.276218893E1
3.897838750E0,-2.037577835E1,1.418150940E0,9.493857422E0,2.252369473E1
3.907864750E0,-1.842533432E1,2.015109558E0,7.020700378E0,1.982028872E1
3.917890750E0,-1.512260239E1,2.051334229E0,4.391867065E0,1.588047768E1
3.927915750E0,-1.223810074E1,1.538500671E0,2.880609741E0,1.266633358E1
3.937941750E0,-9.544901276E0,1.272952881E0,2.127825165E0,9.861703166E0
3.947967750E0,-7.061116333E0,9.762698364E-1,7.481442261E-1,7.167439323E0
3.957992750E0,-5.474715271E0,8.985813904E-1,-4.700525208E0,7.271512431E0
3.968018750E0,-3.948638763E0,1.232237549E0,-2.552551941E1,2.585850534E1
3.978043750E0,-8.701405334E-1,3.623963928E-1,-2.626767609E1,2.628458260E1
3.988069750E0,-3.827989655E0,-1.128652954E-1,-7.805368652E0,8.694252307E0
3.998095500E0,-7.546706543E0,3.936813354E-2,-3.835174713E0,8.465393941E0
4.008120500E0,-9.822424164E0,8.652008057E-2,-2.148931274E0,1.005511849E1
4.018146500E0,-1.086575455E1,3.004252625E-1,-1.405277710E0,1.096036873E1
4.028172500E0,-9.902657318E0,4.415817261E-1,-1.337169342E0,1.000228165E1
4.038197500E0,-8.660390625E0,3.682342529E-1,-1.059646454E0,8.732743718E0
4.048223500E0,-7.896678772E0,1.853146362E-1,-9.177415466E-1,7.951988851E0
4.058248500E0,-7.485932922E0,-2.589614868E-2,-9.648934937E-1,7.547905788E0
4.068274500E0,-7.482639771E0,-1.435514832E-1,-9.642947388E-1,7.545884263E0
4.078300500E0,-8.030949554E0,-1.490899658E-1,-9.102571106E-1,8.083745826E0
4.088325500E0,-8.849597168E0,-9.430389404E-2,-8.235873413E-1,8.888338392E0
4.098351500E0,-9.712253265E0,7.080276489E-2,-6.709048462E-1,9.735655593E0
4.108377500E0,-1.045979874E1,4.089495850E-1,-5.204676819E-1,1.048072116E1
4.118402500E0,-1.083087708E1,7.761360168E-1,-3.492237854E-1,1.086426448E1
4.128428500E0,-1.067684738E1,1.034498749E0,-3.195854187E-1,1.073160717E1
4.138453500E0,-1.015623001E1,1.088536377E0,-6.346801758E-1,1.023409685E1
4.148479500E0,-9.602531433E0,8.845106506E-1,-1.272054749E0,9.726720532E0
4.158505500E0,-9.111552429E0,6.026467896E-1,-1.950294342E0,9.337409643E0
4.168530500E0,-8.543783112E0,3.855981445E-1,-2.456242218E0,8.898204404E0
4.178556500E0,-8.097561035E0,2.646496582E-1,-2.805615692E0,8.573914717E0
4.188582500E0,-7.882608032E0,1.594184875E-1,-2.983296204E0,8.429767487E0
4.198607500E0,-7.855963440E0,8.562194824E-2,-2.867736511E0,8.363456545E0
4.208633500E0,-7.835905151E0,4.999603271E-2,-2.460732880E0,8.213349831E0
4.218658500E0,-7.682923279E0,5.463638306E-2,-1.893113251E0,7.912911792E0
4.228684500E0,-7.405699768E0,9.011260986E-2,-1.420995026E0,7.541335174E0
4.238710500E0,-7.040608978E0,1.493893433E-1,-1.122515717E0,7.131096234E0
4.248735500E0,-6.627019043E0,1.570234680E-1,-9.521699524E-1,6.696914617E0
4.258761500E0,-6.126909027E0,1.625619507E-1,-9.373507690E-1,6.200327982E0
4.268787500E0,-5.586832123E0,1.351689148E-1,-9.780661011E-1,5.673409654E0
4.278812500E0,-5.154381409E0,4.819976807E-2,-9.729766846E-1,5.245631950E0
4.288838500E0,-4.848567352E0,-6.825805664E-2,-9.035211182E-1,4.932505950E0
4.298863500E0,-4.655319214E0,-1.740879822E-1,-7.987390137E-1,4.726551345E0
4.308889500E0,-4.499343567E0,-2.221380615E-1,-7.185058594E-1,4.561763751E0
4.318915500E0,-4.306095428E0,-3.049159241E-1,-6.941065979E-1,4.372323813E0
4.328940500E0,-4.176015930E0,-4.620890808E-1,-6.945556641E-1,4.258525911E0
4.338966500E0,-4.151317291E0,-6.126759338E-1,-7.466473389E-1,4.262193015E0
4.348992500E0,-4.401447144E0,-8.186476135E-1,-7.479945374E-1,4.538988511E0
4.359017500E0,-4.789290619E0,-9.630972290E-1,-6.465055847E-1,4.927761193E0
4.369043500E0,-5.147495728E0,-8.502319336E-1,-4.962181091E-1,5.240786107E0
4.379068500E0,-5.578898621E0,-4.992118835E-1,-2.634521484E-1,5.607381685E0
4.389094500E0,-6.178252258E0,-2.127076721E-1,5.822891235E-2,6.182187002E0
4.399120500E0,-7.051985321E0,-1.451980591E-2,2.285746765E-1,7.055703663E0
4.409145500E0,-8.652606812E0,5.912704468E-2,-1.451980591E-1,8.654026989E0
4.419171500E0,-1.085362976E1,-9.041198730E-2,-3.493734741E-1,1.085962776E1
4.429197500E0,-1.349503693E1,1.167572021E-2,-1.526824951E-1,1.349590567E1
4.439222500E0,-1.592762833E1,7.544311523E-2,8.023315430E-2,1.592800908E1
4.449248500E0,-1.786190598E1,-4.490661621E-3,1.134640503E-1,1.786226691E1
4.459273500E0,-1.977642471E1,-3.986210632E-1,6.001020813E-1,1.978954258E1
4.469299500E0,-2.115371063E1,-8.093669128E-1,2.100432129E0,2.127313713E1
4.479325500E0,-2.051124664E1,-5.520520020E-1,4.841831360E0,2.108220413E1
4.489350500E0,-1.897169815E1,-1.002914429E-2,7.699688416E0,2.047463389E1
4.499376500E0,-1.860421234E1,8.831634521E-3,1.135568573E1,2.179606371E1
4.509402500E0,-2.008298721E1,-1.375639343E-1,1.566282898E1,2.546899116E1
4.519427500E0,-2.324725708E1,-3.094065857E-1,1.917811890E1,3.013852914E1
4.529453500E0,-2.736279877E1,-4.842430115E-1,2.091016708E1,3.444114306E1
4.539479500E0,-3.168775497E1,-6.390211487E-1,2.021695862E1,3.759318527E1
4.549504500E0,-3.531980209E1,-8.620573425E-1,1.757540176E1,3.946043981E1
4.559530500E0,-3.736095749E1,-1.234183502E0,1.423060730E1,3.999843169E1
4.569555500E0,-3.635714493E1,-1.075962524E0,1.028690826E1,3.779973762E1
4.579581500E0,-3.309318237E1,4.041595459E-2,6.205196228E0,3.366993931E1
4.589607500E0,-2.994807266E1,1.104104004E0,3.393592987E0,3.015994985E1
4.599632500E0,-2.730726425E1,1.893562317E0,5.165757751E-1,2.737771191E1
4.609658500E0,-2.459041397E1,3.080144806E0,-2.739752655E0,2.493355161E1
4.619684500E0,-2.184841599E1,3.367846527E0,-6.360423431E0,2.300327493E1
4.629709500E0,-1.829166229E1,3.100951538E0,-1.427716049E1,2.341021404E1
4.639735500E0,-1.318518127E1,2.895877991E0,-1.554996368E1,2.059214620E1
4.649760500E0,-1.289433609E1,2.035616913E0,-6.740782471E0,1.469169111E1
4.659786500E0,-1.252984406E1,1.404229889E0,-2.155517578E0,1.279121220E1
4.669812500E0,-9.857151947E0,8.505313110E-1,1.254391479E-1,9.894573412E0
4.679837500E0,-6.999893646E0,4.578977966E-1,1.161883850E0,7.110425833E0
4.689863500E0,-3.885470123E0,4.520599365E-1,8.533753967E-1,4.003684033E0
4.699889500E0,-1.669927368E0,5.983058167E-1,-2.659968567E-1,1.793706106E0
4.709914500E0,-5.198689270E-1,6.965016174E-1,-1.168769531E0,1.456502805E0
4.719940500E0,-3.049159241E-1,7.972421265E-1,-1.894460449E0,2.077871296E0
4.729965500E0,-2.692900085E-1,7.628137207E-1,-2.412233734E0,2.544262854E0
4.739991500E0,1.151106262E-1,6.274951172E-1,-2.622097321E0,2.698591287E0
4.750017500E0,8.711883545E-1,3.061134338E-1,-2.159708862E0,2.348833105E0
4.760042500E0,2.204615479E0,-3.132984924E-1,-1.492845612E0,2.680871756E0
4.770068500E0,4.578528900E0,-1.235530701E0,2.356100464E-1,4.748154915E0
4.780094500E0,7.591463470E0,-2.023791504E0,4.024381256E0,8.827326558E0
4.790119500E0,9.884994049E0,-2.278861084E0,7.892786865E0,1.285310856E1
4.800145500E0,1.038465500E1,-2.045047302E0,9.717192993E0,1.436826773E1
4.810170500E0,9.383387146E0,-1.886377258E0,9.200168152E0,1.327589799E1
4.820196500E0,7.626939697E0,-1.811832275E0,7.577093353E0,1.090253590E1
4.830222500E0,5.991889801E0,-1.504221954E0,5.654042358E0,8.374581904E0
4.840247500E0,4.907844086E0,-1.195563812E0,4.558171234E0,6.803912948E0
4.850273500E0,3.911515961E0,-9.985734558E-1,3.163371735E0,5.128745148E0
4.860299500E0,3.130889282E0,-8.662486267E-1,2.125729523E0,3.882213336E0
4.870324500E0,2.616259460E0,-8.370593262E-1,1.644330597E0,3.201453575E0
4.880350500E0,2.404300232E0,-7.780819702E-1,1.214574280E0,2.803794186E0
4.890375500E0,2.378104706E0,-6.092330933E-1,6.918612671E-1,2.550533075E0
4.900401500E0,2.266586609E0,-4.420307922E-1,2.007325745E-1,2.317994746E0
4.910427500E0,2.100731506E0,-3.376977539E-1,-1.910028076E-1,2.136257173E0
4.920452500E0,1.864373016E0,-2.764750671E-1,-1.980381775E-1,1.895137021E0
4.930478500E0,1.607207794E0,-1.883084106E-1,-3.971241760E-1,1.666218642E0
4.940504500E0,1.564696198E0,-2.754272461E-2,-6.027964783E-1,1.677020091E0
4.950529500E0,1.713486786E0,1.809736633E-1,-6.607260132E-1,1.845358311E0
4.960555500E0,1.994452515E0,5.530998230E-1,-6.957531738E-1,2.183536747E0
4.970580500E0,2.278861084E0,9.059161377E-1,-3.611988831E-1,2.478781257E0
4.980606500E0,2.465971985E0,1.073268127E0,1.278341675E-1,2.692445706E0
4.990632500E0,2.324665833E0,1.005309448E0,1.910028076E-1,2.539921336E0
5.000657167E0,2.176024933E0,8.743318176E-1,4.062551880E-1,2.380038637E0
5.010683167E0,1.931283875E0,7.903564453E-1,1.028361511E0,2.326380904E0
5.020709167E0,1.486109619E0,8.039781189E-1,1.198407898E0,2.071493207E0
5.030734167E0,9.764195251E-1,7.110214233E-1,5.682183838E-1,1.334847814E0
5.040760167E0,6.867718506E-1,2.933898926E-1,-5.590873718E-1,9.329050826E-1
5.050785167E0,5.466632080E-1,-8.113128662E-2,-1.279688873E0,1.393924876E0
5.060811167E0,4.682263184E-1,-3.535647583E-1,-1.888023834E0,1.977088243E0
5.070837167E0,4.222718811E-1,-5.218148804E-1,-2.403551788E0,2.495529104E0
5.080862167E0,4.105961609E-1,-5.060975647E-1,-2.975811768E0,3.046338725E0
5.090888167E0,3.797602844E-1,-5.191204834E-1,-3.144660645E0,3.209765493E0
5.100914167E0,1.426533508E-1,-6.218069458E-1,-2.898422699E0,2.967801880E0
5.110939167E0,-2.131567383E-1,-7.319778442E-1,-2.598296814E0,2.707835610E0
5.120965167E0,-2.914439392E-1,-7.429051208E-1,-2.295177155E0,2.429955917E0
5.130990167E0,-2.188449097E-1,-7.602690125E-1,-2.040107574E0,2.188136417E0
5.141016167E0,-3.447331238E-1,-8.994795227E-1,-1.680854645E0,1.937311713E0
5.151042167E0,-3.755690002E-1,-9.343569946E-1,-1.224902802E0,1.585705502E0
5.161067167E0,-5.556445312E-1,-1.031804352E0,-2.463876343E-1,1.197525754E0
5.171093167E0,-1.844464417E0,-2.038011932E0,4.516108704E0,5.286849671E0
5.181119167E0,-7.729925537E-1,-1.070424042E0,6.926546173E0,7.051267050E0
5.191144167E0,4.670288086E-1,5.038522339E-1,1.348695374E0,1.513592479E0
5.201170167E0,-2.294234116E1,3.750750275E0,-3.697461090E0,2.353912411E1
5.211196167E0,-1.405271722E2,9.362730103E0,2.078817078E1,1.423646547E2
5.221221167E0,-1.492466899E2,1.207838287E1,6.143734039E1,1.618487213E2
5.231247167E0,-8.971877884E1,1.023137375E1,4.355103516E1,1.002538426E2
5.241272167E0,-5.497842178E1,8.947493591E0,2.147105072E1,5.969665420E1
5.251298167E0,-2.524215866E1,5.863756256E0,6.782545624E0,2.678718232E1
5.261324167E0,-1.166284698E1,3.423979797E0,2.510429535E0,1.241160320E1
5.271349167E0,-5.050796814E0,1.882784729E0,1.217568054E0,5.526110636E0
5.281375167E0,-9.416917419E-1,7.298822021E-1,1.103056183E0,1.623651535E0
5.291401167E0,8.243357849E-1,1.068777466E-1,1.710792389E0,1.902041781E0
5.301426167E0,1.415905609E0,-1.847158813E-1,1.482217712E0,2.058124874E0
5.311452167E0,1.703158264E0,-1.987866211E-1,8.354127502E-1,1.907401021E0
5.321477167E0,1.795965271E0,-1.812730408E-1,1.778302002E-1,1.813828754E0
5.331503167E0,1.797611847E0,-1.389111328E-1,-2.722837830E-1,1.823415233E0
5.341529167E0,1.773362274E0,-1.419049072E-1,-3.716770935E-1,1.817441779E0
5.351554167E0,2.096240845E0,-3.022215271E-1,-1.457070007E0,2.570722960E0
5.361580167E0,3.635789337E0,-4.423301697E-1,-4.150868225E0,5.535731849E0
5.371606167E0,5.043911133E0,-3.146456909E-1,-4.783303070E0,6.958450236E0
5.381631167E0,5.256169739E0,2.290237427E-2,-4.070485382E0,6.648059573E0
5.391657167E0,4.482877808E0,1.941462708E-1,-3.101101227E0,5.454421604E0
5.401682167E0,3.244802399E0,3.754193115E-1,-2.172731781E0,3.923065849E0
5.411708167E0,1.610201569E0,4.010160828E-1,-1.323996735E0,2.122859002E0
5.421734167E0,4.260140991E-1,2.869532776E-1,-7.322772217E-1,8.944608016E-1
5.431759167E0,-3.713777161E-1,2.109114075E-1,-4.537065125E-1,6.231008179E-1
5.441785167E0,-6.033952332E-1,2.983296204E-1,-4.376898193E-1,8.029064377E-1
5.451811167E0,-7.192543030E-1,6.755451965E-1,-8.550219727E-1,1.305660997E0
5.461836167E0,-9.617500305E-1,1.222956848E0,-1.315314789E0,2.037311848E0
5.471862167E0,-1.480271759E0,1.944157104E0,-1.738185425E0,2.998706371E0
5.481887167E0,-4.347110138E0,2.693049774E0,-1.740281067E0,5.401709158E0
5.491913167E0,-9.838291168E0,3.250939636E0,-1.007405090E0,1.041035286E1
5.501939167E0,-1.976834152E1,2.658621368E0,7.951464844E-1,1.996216051E1
5.511964167E0,-2.936892700E1,5.957611084E-2,2.919828186E0,2.951377338E1
5.521990167E0,-2.995331177E1,-1.685045929E0,5.942642212E0,3.058357831E1
5.532016167E0,-2.620944717E1,-8.475375366E-1,1.063448547E1,2.829745081E1
5.542041167E0,-2.077634537E1,8.369096375E-1,1.368514160E1,2.489257008E1
5.552067167E0,-1.552526505E1,1.186732178E0,1.180235687E1,1.953811188E1
5.562093167E0,-1.164967438E1,7.403604126E-1,7.715854797E0,1.399276463E1
5.572118167E0,-1.053179901E1,4.260140991E-1,3.923790436E0,1.124706227E1
5.582144167E0,-9.331744537E0,5.836363220E-1,1.348096619E0,9.446663536E0
5.592169167E0,-6.531068573E0,9.900411987E-1,-4.074526978E-1,6.618236622E0
5.602195167E0,-4.583019562E0,1.428928528E0,-1.919608154E0,5.170183798E0
5.612221167E0,-4.210294647E0,1.428928528E0,-3.225642242E0,5.493012437E0
5.622246167E0,-5.209915924E0,1.019529877E0,-5.219346313E0,7.444745868E0
5.632272167E0,-6.671626282E0,4.652325439E-1,-1.081860260E1,1.271885218E1
5.642298167E0,-6.531667328E0,1.345701599E-1,-1.154579041E1,1.326597389E1
5.652323167E0,-6.531966705E0,1.282832336E-1,-5.160967712E0,8.325781246E0
5.662349167E0,-8.124654694E0,2.483335876E-1,-2.199825439E0,8.420861917E0
5.672374167E0,-9.949360199E0,3.951782227E-1,-1.221010895E0,1.003178956E1
5.682400167E0,-1.110480743E1,7.375163269E-1,-5.956114197E-1,1.114519769E1
5.692426167E0,-1.146331192E1,1.146465912E0,-2.960842896E-1,1.152430346E1
5.702451167E0,-1.112726074E1,1.438358917E0,-8.936416626E-2,1.122019581E1
5.712477167E0,-1.054527100E1,1.446142731E0,-1.309776306E-1,1.064477451E1
5.722503167E0,-1.000938538E1,1.271755371E0,-5.867797852E-1,1.010690199E1
5.732528167E0,-9.532926178E0,1.138682098E0,-1.090182953E0,9.662389834E0
5.742554167E0,-9.206155701E0,1.004710693E0,-1.380728760E0,9.363180991E0
5.752579167E0,-9.061107330E0,8.463400269E-1,-1.510359192E0,9.225028042E0
5.762605167E0,-8.969048767E0,6.771917725E-1,-1.612297211E0,9.137938869E0
5.772631167E0,-8.914412384E0,4.912783813E-1,-1.803749084E0,9.108326595E0
5.782656167E0,-8.914412384E0,3.588038635E-1,-2.152673492E0,9.177662640E0
5.792682167E0,-9.027127991E0,2.534230042E-1,-2.530936890E0,9.378640867E0
5.802708167E0,-9.212292938E0,2.688409424E-1,-2.884501648E0,9.657068209E0
5.812733167E0,-9.409283295E0,3.823049927E-1,-3.221001892E0,9.952669110E0
5.822759167E0,-9.637558594E0,5.598358154E-1,-3.535497894E0,1.028084127E1
5.832784167E0,-9.717043304E0,7.444020081E-1,-3.804189148E0,1.046168820E1
5.842810167E0,-9.708061981E0,8.358618164E-1,-4.005370789E0,1.053509030E1
5.852836167E0,-9.582323456E0,7.655081177E-1,-4.034111023E0,1.042501689E1
5.862861167E0,-9.565258942E0,6.575825500E-1,-3.747008057E0,1.029401102E1
5.872887167E0,-9.698182526E0,4.258644104E-1,-3.418291626E0,1.029178422E1
5.882913167E0,-9.617051239E0,2.490820312E-1,-3.223696289E0,1.014603046E1
5.892938167E0,-9.443711700E0,1.447489929E-1,-2.984044647E0,9.905007088E0
5.902964167E0,-9.215286713E0,1.276844788E-1,-2.854563904E0,9.648126637E0
5.912990167E0,-9.136849823E0,1.504371643E-1,-2.808459778E0,9.559921671E0
5.923015167E0,-9.145232391E0,2.492317200E-1,-2.692301331E0,9.536554849E0
5.933041167E0,-9.138346710E0,3.698808289E-1,-2.467019806E0,9.472717622E0
5.943066167E0,-9.092691650E0,5.710624695E-1,-2.242337036E0,9.382495893E0
5.953092167E0,-8.883576508E0,8.381071472E-1,-1.994452515E0,9.143204908E0
5.963118167E0,-8.434510345E0,9.969268799E-1,-1.726659393E0,8.666959134E0
5.973143167E0,-8.019573212E0,9.922865295E-1,-1.503922577E0,8.219487221E0
5.983169167E0,-7.698191528E0,9.482780457E-1,-1.334924011E0,7.870413342E0
5.993195167E0,-7.372019806E0,8.626560974E-1,-1.189276886E0,7.516996147E0
6.003221000E0,-7.079677734E0,7.529342651E-1,-1.035247192E0,7.194475907E0
6.013247000E0,-6.780150604E0,6.773414612E-1,-8.108638000E-1,6.861977395E0
6.023272000E0,-6.458319855E0,5.894741821E-1,-5.593867493E-1,6.509246400E0
6.033298000E0,-6.095324707E0,5.499563599E-1,-4.216731262E-1,6.134593997E0
6.043324000E0,-5.669909363E0,5.310955811E-1,-2.537223816E-1,5.700378035E0
6.053349000E0,-5.222489777E0,5.086422729E-1,-1.679507446E-1,5.249887987E0
6.063375000E0,-4.772675171E0,4.508624268E-1,-1.109193420E-1,4.795206806E0
6.073401000E0,-4.405638428E0,4.138893127E-1,-3.113525391E-2,4.425146746E0
6.083426000E0,-4.208797760E0,4.028123474E-1,4.326004028E-2,4.228251152E0
6.093452000E0,-4.014352112E0,4.525090027E-1,8.412506104E-2,4.040651470E0
6.103477000E0,-3.710484009E0,5.122348022E-1,9.729766846E-3,3.745686952E0
6.113503000E0,-3.403472443E0,5.520520020E-1,-2.263293457E-1,3.455374228E0
6.123529000E0,-3.211122437E0,7.300318909E-1,-7.384144592E-1,3.374834778E0
6.133554000E0,-3.135379944E0,7.851173401E-1,-1.247206421E0,3.464468283E0
6.143580000E0,-3.255879364E0,4.254153442E-1,-1.659598846E0,3.679129921E0
6.153606000E0,-4.106560364E0,-2.152523804E-1,-1.971849518E0,4.560522133E0
6.163631000E0,-5.776787109E0,-1.055754547E0,-2.258952484E0,6.291959416E0
6.173657000E0,-8.010142822E0,-1.753303986E0,-2.239942017E0,8.500223711E0
6.183683000E0,-1.108355164E1,-1.991159363E0,-2.089804230E0,1.145325780E1
6.193708000E0,-1.546509018E1,-1.602866821E0,-1.460512848E0,1.561637903E1
6.203734000E0,-2.061378342E1,-6.535409546E-1,-1.525178375E0,2.068045821E1
6.213759000E0,-2.389376266E1,1.097966766E0,-2.366279297E0,2.403573804E1
6.223785000E0,-2.309816711E1,3.309467926E0,-2.297572174E0,2.344689190E1
6.233811000E0,-2.116643417E1,4.937183075E0,-1.610351257E0,2.179419518E1
6.243836000E0,-2.171923462E1,4.552632751E0,-1.729054413E0,2.225850953E1
6.253862000E0,-2.398851562E1,3.677103424E0,-5.111420746E0,2.480114097E1
6.263888000E0,-2.768388107E1,3.423680420E0,-1.092518097E1,2.995794449E1
6.273913000E0,-3.275353867E1,2.642604675E0,-1.207568848E1,3.500856905E1
6.283939000E0,-3.818229950E1,1.666334839E0,-9.934541016E0,3.948872968E1
6.293964000E0,-4.240501831E1,1.898651733E0,-9.906399536E0,4.358815445E1
6.303990000E0,-4.498310715E1,2.090702362E0,-1.334819229E1,4.696834256E1
6.314016000E0,-4.268553497E1,1.756597137E0,-1.822011108E1,4.644473035E1
6.324041000E0,-3.836716507E1,1.814376984E0,-1.871408386E1,4.272643507E1
6.334067000E0,-3.408082855E1,2.602637787E0,-1.172900940E1,3.613649485E1
6.344093000E0,-2.856659546E1,3.354524231E0,-4.015100555E0,2.904176719E1
6.354118000E0,-2.455568619E1,3.518732758E0,-8.539741516E-1,2.482121021E1
6.364144000E0,-2.328482895E1,3.699107666E0,-5.246589661E-1,2.358266151E1
6.374170000E0,-2.141431870E1,4.170776825E0,-6.730004883E-1,2.182707846E1
6.384195000E0,-1.602642288E1,3.374732208E0,1.728904724E-1,1.637879541E1
6.394221000E0,-1.149594406E1,2.375110931E0,6.469546509E-1,1.175654848E1
6.404246000E0,-7.412884827E0,1.934876404E0,-1.805245972E-1,7.663367229E0
6.414272000E0,-3.802542572E0,1.483115845E0,-1.385518799E0,4.310292909E0
6.424298000E0,-1.445394287E0,9.725276184E-1,-2.108066254E0,2.734761040E0
6.434323000E0,-5.186714172E-1,6.683601379E-1,-2.009720764E0,2.180528116E0
6.444349000E0,-5.496569824E-1,5.218148804E-1,-1.830842743E0,1.981514248E0
6.454375000E0,-5.529501343E-1,3.472778320E-1,-1.854643250E0,1.966229215E0
6.464400000E0,-4.017645264E-1,1.493893433E-1,-1.272204437E0,1.342473851E0
6.474426000E0,5.254074097E-2,-9.145980835E-2,-6.271957397E-1,6.360030833E-1
6.484451000E0,1.144669647E0,-4.381388855E-1,-5.433700562E-2,1.226860544E0
6.494477000E0,4.496349792E0,-6.161187744E-1,2.687211914E0,5.274265036E0
6.504503000E0,8.686286774E0,-1.854643250E-1,6.941365356E0,1.112063523E1
6.514528000E0,1.134445908E1,2.761756897E-1,1.043420197E1,1.541575802E1
6.524554000E0,1.164204025E1,6.560856628E-1,1.146061752E1,1.634971876E1
6.534580000E0,1.163126266E1,1.104852448E0,1.105376358E1,1.608392550E1
6.544605000E0,1.056098831E1,9.556127930E-1,9.702822876E0,1.437332396E1
6.554631000E0,8.346493378E0,5.026547241E-1,7.169341278E0,1.101435735E1
6.564656000E0,6.592141571E0,8.891510010E-2,4.774920502E0,8.140276542E0
6.574682000E0,5.221591644E0,3.592529297E-2,3.146905975E0,6.096665248E0
6.584708000E0,3.911216583E0,-1.850152588E-1,1.892514496E0,4.348960442E0
6.594733000E0,3.009042664E0,-4.050576782E-1,9.057664490E-1,3.168410064E0
6.604759000E0,2.395767975E0,-4.909790039E-1,-5.134323120E-2,2.446099078E0
6.614785000E0,2.041155396E0,-4.426295471E-1,-7.152127075E-1,2.207660636E0
6.624810000E0,1.819316711E0,-3.474275208E-1,-1.179996185E0,2.196135282E0
6.634836000E0,1.584754486E0,-2.627037048E-1,-1.425186310E0,2.147467354E0
6.644861000E0,1.389261017E0,-1.380130005E-1,-1.527573395E0,2.069438145E0
6.654887000E0,1.362616425E0,-2.320175171E-2,-2.240989838E0,2.622841454E0
6.664913000E0,1.551074524E0,1.050814819E-1,-2.831661530E0,3.230353125E0
6.674938000E0,1.653611298E0,2.225871277E-1,-3.434308319E0,3.818173514E0
6.684964000E0,1.666634216E0,3.622467041E-1,-3.794309692E0,4.160009414E0
6.694990000E0,8.870553589E-1,3.878434753E-1,-3.680246887E0,3.805457518E0
6.705015000E0,-4.447700958E0,-1.130149841E-1,-2.779420166E0,5.245950120E0
6.715041000E0,-1.074241104E1,-2.251318359E-1,-1.692979431E-1,1.074610353E1
6.725067000E0,-6.441255341E0,8.369096375E-1,-2.792443085E0,7.070214034E0
6.735092000E0,-4.513114929E-1,1.046623535E0,-5.371130676E0,5.490732886E0
6.745118000E0,2.144440613E0,9.213340759E-1,-4.653073883E0,5.205629509E0
6.755143000E0,2.909649353E0,7.458988953E-1,-4.121678925E0,5.100064870E0
6.765169000E0,2.868035889E0,5.237608337E-1,-3.532504120E0,4.580233687E0
6.775195000E0,2.129771118E0,2.647993469E-1,-2.478845215E0,3.278828649E0
6.785220000E0,1.558858337E0,7.274871826E-2,-1.927990723E0,2.480419303E0
6.795246000E0,1.448986816E0,6.391708374E-2,-1.745071106E0,2.269123477E0
6.805272000E0,1.316212921E0,7.454498291E-2,-1.742825775E0,2.185272315E0
6.815297000E0,1.221160583E0,7.439529419E-2,-1.846709747E0,2.215198574E0
6.825323000E0,1.136736145E0,5.897735596E-2,-1.855242004E0,2.176596032E0
6.835348000E0,1.016835480E0,-5.343887329E-2,-1.731748810E0,2.008921115E0
6.845374000E0,8.744815063E-1,-3.849993896E-1,-1.264420624E0,1.584834991E0
6.855400000E0,6.521937561E-1,-6.918612671E-1,-8.663983154E-1,1.286341615E0
6.865425000E0,4.992118835E-1,-7.328759766E-1,-7.324269104E-1,1.150116899E0
6.875451000E0,4.528083801E-1,-6.607260132E-1,-7.409591675E-1,1.091152960E0
6.885477000E0,6.017486572E-1,-8.002359009E-1,-6.758445740E-1,1.207992066E0
6.895502000E0,2.842439117E0,-2.239343262E0,2.573598175E0,4.440442089E0
6.905528000E0,4.341122589E0,-2.709365845E0,1.681228867E1,1.757381742E1
6.915553000E0,9.239985352E0,-3.029699707E-1,2.489922180E1,2.656012738E1
6.925579000E0,8.026758270E0,7.138655090E-1,1.446966019E1,1.656229206E1
6.935605000E0,3.848197632E0,2.576142883E-1,1.306423279E1,1.362164338E1
6.945630000E0,-4.751030182E1,-6.025869141E0,3.659754501E1,6.027371051E1
6.955656000E0,-1.194114825E2,-5.088368683E0,7.026807678E1,1.386455779E2
6.965682000E0,-1.348328636E2,1.014919464E1,5.588882858E1,1.463094953E2
6.975707000E0,-8.415335220E1,6.057154083E0,3.272973816E1,9.049702516E1
6.985733000E0,-4.645140381E1,3.135829010E0,1.644540161E1,4.937628554E1
6.995759000E0,-2.218746094E1,3.230432281E0,7.375612335E0,2.360336359E1
7.005783792E0,-1.032223480E1,1.843117218E0,4.249662781E0,1.131394035E1
7.015809792E0,-3.253184967E0,1.228944397E0,1.680106201E0,3.862159190E0
7.025834792E0,1.050365753E0,1.059496765E0,-1.785786438E-1,1.502561793E0
7.035860792E0,2.579136658E0,6.994953918E-1,-1.480421448E0,3.054977474E0
7.045886792E0,3.132685547E0,1.667532349E-1,-4.609065399E0,5.575393191E0
7.055911792E0,5.151387634E0,-7.689509583E-1,-1.292666885E1,1.393652926E1
7.065937792E0,6.590794373E0,-8.431965637E-1,-1.063418610E1,1.253935664E1
7.075963792E0,5.298681335E0,-3.047662354E-1,-5.491480408E0,7.637097840E0
7.085988792E0,2.962489471E0,-1.067280579E-1,-3.360362091E0,4.481045428E0
7.096014792E0,1.325643311E0,-1.242416382E-2,-1.115031281E0,1.732275758E0
7.106039792E0,5.294490051E-1,-2.649490356E-2,-9.789642334E-2,5.390750770E-1
7.116065792E0,2.933898926E-2,-2.649490356E-2,1.062789917E-1,1.133930345E-1
7.126091792E0,-1.835183716E-1,9.145980835E-2,-3.442840576E-2,2.079163398E-1
7.136116792E0,-2.866539001E-1,3.710783386E-1,-2.571652222E-1,5.347929911E-1
7.146142792E0,-4.260140991E-1,7.333250427E-1,-5.225633240E-1,9.961556397E-1
7.156168792E0,-5.248086548E-1,1.122216339E0,-7.798782349E-1,1.463900166E0
7.166193792E0,-6.927593994E-1,1.438209229E0,-9.610015869E-1,1.863299606E0
7.176219792E0,-1.010249176E0,1.548829193E0,-1.121916962E0,2.162908444E0
7.186244792E0,-1.252595215E0,1.557511139E0,-1.126257935E0,2.294186709E0
7.196270792E0,-1.504371643E0,1.515598297E0,-8.803193665E-1,2.309790992E0
7.206296792E0,-1.988015900E0,1.363813934E0,-5.034031677E-1,2.462845999E0
7.216321792E0,-2.977158966E0,1.103056183E0,2.287243652E-1,3.183162466E0
7.226347792E0,-5.247936859E0,6.036946106E-1,2.143542480E0,5.700882636E0
7.236373792E0,-9.308093719E0,-2.622546387E-1,5.807323608E0,1.097426051E1
7.246398792E0,-1.389365799E1,-1.397793274E0,1.055170761E1,1.750217392E1
7.256424792E0,-1.732182907E1,-1.898951111E0,1.561986832E1,2.340153978E1
7.266450792E0,-1.912468002E1,-1.245260468E0,1.781250870E1,2.616466177E1
7.276475792E0,-1.952255264E1,-7.050338745E-2,1.679522415E1,2.575295297E1
7.286501792E0,-1.901406006E1,8.550219727E-1,1.432745590E1,2.382313025E1
7.296526792E0,-1.765952682E1,1.141376495E0,9.954449615E0,2.030400687E1
7.306552792E0,-1.542302765E1,9.857002258E-1,4.588857422E0,1.612138329E1
7.316578792E0,-1.258747421E1,1.186283112E0,1.192719727E0,1.269938404E1
7.326603792E0,-9.734107819E0,1.459015961E0,-7.185058594E-2,9.843106476E0
7.336629792E0,-7.176226959E0,1.444196777E0,-8.857081604E-1,7.373494195E0
7.346655792E0,-5.338348846E0,1.370549927E0,-2.180216217E0,5.927032838E0
7.356680792E0,-4.584217072E0,9.470805359E-1,-3.500021667E0,5.844840406E0
7.366706792E0,-4.600533142E0,5.152285767E-1,-5.252577209E0,7.001423642E0
7.376731792E0,-5.229824524E0,9.744735718E-2,-9.649084625E0,1.097567286E1
7.386757792E0,-5.672603760E0,-2.035766602E-1,-1.430275726E1,1.538794145E1
7.396783792E0,-5.524561615E0,-5.254074097E-2,-1.029065048E1,1.167994131E1
7.406808792E0,-6.262077942E0,2.186952209E-1,-5.381159821E0,8.259438768E0
7.416834792E0,-8.410410461E0,3.306623840E-1,-3.496578827E0,9.114296749E0
7.426860792E0,-1.040770706E1,4.093986511E-1,-2.609224091E0,1.073759861E1
7.436885792E0,-1.148801056E1,4.834945679E-1,-1.707499237E0,1.162427233E1
7.446911792E0,-1.195578781E1,4.574487305E-1,-7.619155884E-1,1.198877128E1
7.456936792E0,-1.200533478E1,3.100053406E-1,-3.742218018E-3,1.200933722E1
7.466962792E0,-1.167946243E1,2.609074402E-1,4.610412598E-1,1.169147016E1
7.476988792E0,-1.103879471E1,3.884422302E-1,6.730004883E-1,1.106611068E1
7.487013792E0,-1.044677582E1,5.671705627E-1,7.077282715E-1,1.048607108E1
7.497039792E0,-1.002151016E1,8.030799866E-1,6.307882690E-1,1.007340544E1
7.507065792E0,-9.642797699E0,9.864486694E-1,5.192701721E-1,9.707021683E0
7.517090792E0,-9.273964691E0,1.091829529E0,4.120930481E-1,9.347102947E0
7.527116792E0,-9.028774567E0,1.148711243E0,4.023632813E-1,9.110444770E0
7.537142792E0,-8.932375031E0,1.216220856E0,3.429368591E-1,9.021314901E0
7.547167792E0,-8.863368530E0,1.187031555E0,1.615141296E-1,8.943960668E0
7.557193792E0,-8.963959351E0,1.035696259E0,-3.936813354E-2,9.023679063E0
7.567218792E0,-9.263336792E0,7.548802185E-1,-1.758842468E-1,9.295708038E0
7.577244792E0,-9.582622833E0,4.543052673E-1,-2.821632385E-1,9.597534565E0
7.587270792E0,-9.726324005E0,2.285746765E-1,-3.288661194E-1,9.734566141E0
7.597295792E0,-9.780361633E0,9.355545044E-2,-3.748205566E-1,9.787988391E0
7.607321792E0,-9.841734009E0,4.685256958E-2,-3.838018799E-1,9.849326238E0
7.617347792E0,-9.915081482E0,6.750961304E-2,-4.372407532E-1,9.924947245E0
7.627372792E0,-9.993967438E0,1.567240906E-1,-5.080435181E-1,1.000809951E1
7.637398792E0,-9.882149963E0,2.668949890E-1,-5.806425476E-1,9.902790849E0
7.647423792E0,-9.593849487E0,3.212319946E-1,-5.568420410E-1,9.615363282E0
7.657449792E0,-9.412875824E0,3.044668579E-1,-4.303550720E-1,9.427626257E0
7.667475792E0,-9.156009979E0,3.080593872E-1,-2.692900085E-1,9.165147922E0
7.677500792E0,-8.944649506E0,2.963836670E-1,-1.146615601E-1,8.950293030E0
7.687526792E0,-8.898844757E0,2.412982178E-1,1.556762695E-2,8.902129250E0
7.697552792E0,-9.006770325E0,1.600172424E-1,1.866618347E-1,9.010125406E0
7.707577792E0,-9.033115540E0,1.880090332E-1,3.710783386E-1,9.042688919E0
7.717603792E0,-8.993448029E0,3.598516846E-1,5.882766724E-1,9.019848675E0
7.727629792E0,-8.832532654E0,4.233197021E-1,8.333171082E-1,8.881849473E0
7.737654792E0,-8.541537781E0,4.679269409E-1,1.011147308E0,8.613898198E0
7.747680792E0,-8.214617615E0,4.869374084E-1,1.208886108E0,8.317358729E0
7.757705792E0,-7.806566162E0,4.878355408E-1,1.374441833E0,7.941633907E0
7.767731792E0,-7.220235443E0,4.272116089E-1,1.537003784E0,7.394368820E0
7.777757792E0,-6.610852661E0,3.691323853E-1,1.737736359E0,6.845389637E0
7.787782792E0,-5.994584198E0,4.336482239E-1,1.914518738E0,6.307810435E0
7.797808792E0,-5.334007874E0,5.547463989E-1,1.875899048E0,5.681406586E0
7.807834792E0,-4.666994934E0,7.396119690E-1,1.551822968E0,4.973532156E0
7.817859792E0,-4.046984253E0,8.598120117E-1,1.202748871E0,4.308591775E0
7.827885792E0,-3.551364899E0,9.006770325E-1,1.071920929E0,3.817384738E0
7.837910792E0,-3.070115662E0,8.464897156E-1,1.055754547E0,3.355111426E0
7.847936792E0,-2.631228333E0,6.116281128E-1,1.032702484E0,2.892045281E0
7.857962792E0,-2.263143768E0,2.546205139E-1,1.084794159E0,2.522583931E0
7.867987792E0,-2.105970612E0,-1.565744019E-1,1.242416382E0,2.450148205E0
7.878013792E0,-2.307301941E0,-5.397775269E-1,1.343156891E0,2.723797433E0
7.888039792E0,-2.540516968E0,-9.407936096E-1,1.344055023E0,3.024202868E0
7.898064792E0,-3.060984650E0,-1.396895142E0,1.319805450E0,3.614253656E0
7.908090792E0,-4.061054993E0,-1.582209778E0,1.309027863E0,4.550726247E0
7.918115792E0,-5.337750092E0,-1.102607117E0,1.343306580E0,5.613536413E0
7.928141792E0,-6.682553558E0,-4.499642944E-1,1.234632568E0,6.810529165E0
7.938167792E0,-8.891809387E0,2.302212524E-1,1.495390320E0,9.019615746E0
7.948192792E0,-1.251622238E1,8.149053955E-1,2.073787537E0,1.271300469E1
7.958218792E0,-1.755055344E1,1.387614441E0,2.182461548E0,1.774008281E1
7.968244792E0,-2.263622772E1,1.871558075E0,1.171763306E0,2.274367086E1
7.978269792E0,-2.433654190E1,2.614762573E0,5.794450378E-1,2.448346404E1
7.988295792E0,-2.243938705E1,4.089495850E0,2.382894745E0,2.293312571E1
7.998321792E0,-2.024510010E1,5.073848877E0,6.775510254E0,2.194346280E1
8.008346375E0,-1.977462845E1,4.842130737E0,9.573940887E0,2.249761108E1
8.018372375E0,-2.002879990E1,4.182302856E0,1.120704483E1,2.332900204E1
8.028397375E0,-2.087394241E1,2.905308380E0,1.402987473E1,2.531797135E1
8.038423375E0,-2.338467133E1,1.043330383E0,1.709699661E1,2.898687090E1
8.048449375E0,-2.613325562E1,-8.421487427E-1,1.816562439E1,3.183781043E1
8.058474375E0,-2.804552902E1,-2.307751007E0,1.706226883E1,3.290894150E1
8.068500375E0,-2.912927536E1,-2.978655853E0,1.524519745E1,3.301216623E1
8.078526375E0,-2.940395416E1,-2.923570404E0,1.389051453E1,3.265097515E1
8.088551375E0,-2.974255005E1,-2.390828247E0,1.293056076E1,3.251975930E1
8.098577375E0,-3.003010208E1,-1.400637360E0,1.084539688E1,3.195921541E1
8.108602375E0,-2.933569611E1,-2.137554932E-1,8.001610565E0,3.040813261E1
8.118628375E0,-2.817890167E1,1.096918945E0,4.806205444E0,2.860687577E1
8.128654375E0,-2.707988708E1,3.214714966E0,2.283651123E0,2.736548445E1
8.138679375E0,-2.349963226E1,4.902754669E0,5.487588501E-1,2.401188989E1
8.148705375E0,-2.101569763E1,5.867947540E0,-1.996697845E0,2.191070874E1
8.158731375E0,-1.902783142E1,5.706134033E0,-3.734583893E0,2.021300203E1
8.168756375E0,-1.609048965E1,3.756288757E0,-3.877536621E0,1.697200203E1
8.178782375E0,-1.316632050E1,1.801952820E0,-3.888912964E0,1.384639568E1
8.188808375E0,-9.315278778E0,1.158590698E0,-4.287084961E0,1.031968258E1
8.198833375E0,-5.101541290E0,2.833607483E-1,-3.617377625E0,6.260306520E0
8.208859375E0,-2.580633545E0,-2.562670898E-1,-2.765199738E0,3.790998800E0
8.218884375E0,-2.504292297E-1,-7.409591675E-2,-1.676663361E0,1.696880971E0
8.228910375E0,9.563612366E-1,2.649490356E-2,-7.108717346E-1,1.191917538E0
8.238936375E0,7.803273010E-1,5.763015747E-2,-4.200265503E-1,8.880620669E-1
8.248961375E0,2.532733154E-1,5.987548828E-3,-2.721340942E-1,3.718066545E-1
8.258987375E0,-6.601272583E-2,3.742218018E-3,-1.152603149E-1,1.328782314E-1
8.269013375E0,-3.168910217E-1,-8.981323242E-4,-1.405577087E-1,3.466658272E-1
8.279038375E0,-7.008425903E-1,4.490661621E-2,-1.395098877E-1,7.160027579E-1
8.289064375E0,-1.055455170E0,1.514849854E-1,-5.322930908E-1,1.191750498E0
8.299089375E0,-1.017284546E0,4.495152283E-1,-1.191073151E0,1.629597201E0
8.309115375E0,-3.474275208E-1,6.424639893E-1,-1.659299469E0,1.812937006E0
8.319141375E0,9.635462952E-1,6.697073364E-1,-1.994003448E0,2.313650607E0
8.329166375E0,2.702480164E0,4.670288086E-1,-1.253792725E0,3.015544916E0
8.339192375E0,4.681365051E0,3.520678711E-1,1.823208618E-1,4.698124245E0
8.349218375E0,6.668632507E0,3.222798157E-1,2.381397858E0,7.088411638E0
8.359243375E0,7.807913361E0,2.408491516E-1,4.258793793E0,8.897125599E0
8.369269375E0,7.792345734E0,8.158035278E-2,5.352120209E0,9.453702879E0
8.379294375E0,7.548203430E0,6.795867920E-2,5.993536377E0,9.638592828E0
8.389320375E0,6.947203217E0,-1.013392639E-1,5.876779175E0,9.100023937E0
8.399346375E0,5.477409668E0,-3.239263916E-1,4.631668396E0,7.180480284E0
8.409371375E0,4.054917755E0,-2.881507874E-1,3.232527924E0,5.193710201E0
8.419397375E0,3.194357300E0,-2.523751831E-1,2.664908295E0,4.167654977E0
8.429423375E0,2.712209930E0,-3.391946411E-1,2.602637787E0,3.774236235E0
8.439448375E0,2.476450195E0,-2.784210205E-1,2.353406067E0,3.427658669E0
8.449474375E0,2.275268555E0,-2.145039368E-1,1.691332855E0,2.843143641E0
8.459500375E0,2.115101624E0,-1.104702759E-1,1.034498749E0,2.357126688E0
8.469525375E0,1.979932709E0,-7.334747314E-2,6.439608765E-1,2.083314425E0
8.479551375E0,1.651964722E0,-1.411564636E-1,2.353106689E-1,1.674599564E0
8.489576375E0,1.271306305E0,-1.998344421E-1,-2.604583740E-2,1.287179828E0
8.499602375E0,9.969268799E-1,-2.115101624E-1,-2.243833923E-1,1.043526549E0
8.509628375E0,8.726852417E-1,-2.023791504E-1,-4.327500916E-1,9.948916993E-1
8.519653375E0,8.414002991E-1,-1.667532349E-1,-5.438191223E-1,1.015628053E0
8.529679375E0,7.918533325E-1,-1.194515991E-1,-5.291496277E-1,9.598435879E-1
8.539705375E0,7.762857056E-1,-1.032852173E-1,-5.447172546E-1,9.539414134E-1
8.549730375E0,9.105564880E-1,-3.906875610E-2,-5.563929749E-1,1.067807393E0
8.559756375E0,1.167871399E0,4.101470947E-2,-5.291496277E-1,1.282811420E0
8.569781375E0,1.377136230E0,5.313949585E-2,-5.716612244E-1,1.492020294E0
8.579807375E0,1.479972382E0,2.290237427E-2,-7.015910339E-1,1.638008775E0
8.589833375E0,1.651665344E0,1.242416382E-2,-8.002359009E-1,1.835355624E0
8.599858375E0,1.680255890E0,-3.502716064E-2,-8.276289368E-1,1.873354322E0
8.609884375E0,1.565893707E0,-1.041833496E-1,-8.922944641E-1,1.805288532E0
8.619910375E0,1.294657745E0,-1.116677856E-1,-9.683363342E-1,1.620581262E0
8.629935375E0,9.809101868E-1,-1.407073975E-1,-9.940827942E-1,1.403632419E0
8.639961375E0,4.486170959E-1,-2.526745605E-1,-8.822653198E-1,1.021515456E0
8.649986375E0,-1.607656860E-1,-3.806584167E-1,-5.854325867E-1,7.165736177E-1
8.660012375E0,-1.985770569E0,-1.121018829E0,-1.431024170E-1,2.284829593E0
8.670038375E0,-8.306676178E0,-1.883383484E0,4.159250793E0,9.478785241E0
8.680063375E0,3.025209045E-1,4.890330505E-1,1.435305267E1,1.436456728E1
8.690089375E0,4.603975983E0,7.310797119E-1,1.237012619E1,1.321934546E1
8.700115375E0,2.151026917E0,7.180567932E-1,6.452931061E0,6.839798362E0
8.710140375E0,-2.883902893E1,-1.191372528E0,5.700894928E0,2.942123657E1
8.720166375E0,-1.061776524E2,-4.877606964E0,3.442451385E1,1.117252527E2
8.730192375E0,-1.376853319E2,2.388433228E0,4.802957199E1,1.458416779E2
8.740217375E0,-9.842018417E1,1.420396271E0,3.489513519E1,1.044328523E2
8.750243375E0,-5.451947617E1,2.151326294E0,1.981489471E1,5.804852745E1
8.760268375E0,-2.787069260E1,1.993704071E0,9.692943420E0,2.957538696E1
8.770294375E0,-1.417552185E1,1.271006927E0,5.300776978E0,1.518746572E1
8.780320375E0,-5.802832947E0,9.758207703E-1,1.391506348E0,6.046601219E0
8.790345375E0,-1.043929138E0,4.564009094E-1,-1.456321564E0,1.849043626E0
8.800371375E0,1.031504974E0,2.338137817E-1,-2.658022614E0,2.860726413E0
8.810397375E0,1.780098267E0,-3.442840576E-3,-2.330054626E0,2.932220362E0
8.820422375E0,2.156116333E0,-1.507365417E-1,-2.984793091E0,3.685179635E0
8.830448375E0,3.743864594E0,5.493576050E-2,-4.399650879E0,5.777237046E0
8.840473375E0,4.763843536E0,4.659809875E-1,-4.533622284E0,6.592804755E0
8.850499375E0,4.189338226E0,5.447172546E-1,-3.359463959E0,5.397524410E0
8.860525375E0,2.804268494E0,3.769161987E-1,-1.896107025E0,3.406054823E0
8.870550375E0,1.440454559E0,2.510279846E-1,-1.026116180E0,1.786291914E0
8.880576375E0,9.190887451E-2,2.300715637E-1,-6.568341064E-1,7.020051346E-1
8.890602375E0,-7.647596741E-1,2.911445618E-1,-2.902464294E-1,8.682542858E-1
8.900627375E0,-7.830216980E-1,4.188290405E-1,-1.139131165E-1,8.952747862E-1
8.910653375E0,-7.220983887E-1,5.382806396E-1,-1.957928467E-1,9.216870232E-1
8.920678375E0,-5.920188904E-1,6.956034851E-1,-3.421884155E-1,9.754196465E-1
8.930704375E0,-4.471202087E-1,7.390132141E-1,-6.361770630E-1,1.072743337E0
8.940730375E0,-2.969824219E-1,7.000941467E-1,-8.411009216E-1,1.133922896E0
8.950755375E0,-1.127156067E-1,5.716612244E-1,-9.180409241E-1,1.087336425E0
8.960781375E0,1.691482544E-1,2.992277527E-1,-8.440946960E-1,9.113968597E-1
8.970807375E0,3.927832031E-1,-6.900650024E-2,-4.438270569E-1,5.966766278E-1
8.980832375E0,3.423381042E-1,-4.980143738E-1,1.634600830E-1,6.260454399E-1
8.990858375E0,-1.606159973E-1,-9.854008484E-1,1.371897125E0,1.696736294E0
9.000884250E0,-1.537602539E0,-1.545236664E0,4.373455353E0,4.886623542E0
9.010909250E0,-4.766837311E0,-2.315834198E0,8.737779694E0,1.021932581E1
9.020935250E0,-1.472293350E1,-4.536616058E0,1.442131073E1,2.110260314E1
9.030960250E0,-2.217309082E1,-5.867049408E0,1.969619156E1,3.023256832E1
9.040986250E0,-2.426394287E1,-3.594026184E0,2.060540085E1,3.203495734E1
9.051012250E0,-2.425286591E1,-4.984634399E-1,1.624960876E1,2.919759845E1
9.061037250E0,-2.276720535E1,1.879790955E0,1.160746216E1,2.562444987E1
9.071063250E0,-2.106314896E1,2.132166138E0,8.012537842E0,2.263632344E1
9.081089250E0,-1.775832138E1,1.601968689E0,3.620970154E0,1.819438668E1
9.091114250E0,-1.364547409E1,1.484612732E0,1.633403320E0,1.382284502E1
9.101140250E0,-9.421408081E0,1.833537140E0,1.252146149E0,9.679496818E0
9.111165250E0,-6.021827545E0,1.995650024E0,-9.900411987E-1,6.420685912E0
9.121191250E0,-3.959116974E0,1.542691956E0,-5.498815155E0,6.949206702E0
9.131217250E0,-3.394191742E0,8.289761353E-1,-2.359692993E1,2.385419966E1
9.141242250E0,-1.610201569E0,5.625302124E-1,-2.317495743E1,2.323763846E1
9.151268250E0,-2.951861572E-1,4.837939453E-1,-7.496411133E0,7.517803623E0
9.161294250E0,-3.286266174E0,2.650987244E-1,-4.082011414E0,5.247155409E0
9.171319250E0,-7.249275055E0,-7.798782349E-2,-2.530338135E0,7.678585937E0
9.181345250E0,-1.017164795E1,-2.914439392E-1,-2.329156494E0,1.043898135E1
9.191370250E0,-1.161135406E1,-4.788542175E-1,-2.048340454E0,1.180036199E1
9.201396250E0,-1.208002945E1,-5.929170227E-1,-1.403182068E0,1.217569637E1
9.211422250E0,-1.160940811E1,-5.969586182E-1,-6.078858948E-1,1.164062892E1
9.221447250E0,-1.093820389E1,-5.378315735E-1,2.972817993E-1,1.095545269E1
9.231473250E0,-1.042866348E1,-5.230123901E-1,1.284329224E0,1.052045938E1
9.241499250E0,-1.021520737E1,-3.600013733E-1,2.088906097E0,1.043281320E1
9.251524250E0,-1.011805939E1,-7.933502197E-2,2.715652771E0,1.047645884E1
9.261550250E0,-9.940378876E0,1.675016785E-1,3.316802673E0,1.048047561E1
9.271576250E0,-9.735754395E0,3.534150696E-1,3.607348480E0,1.038858888E1
9.281601250E0,-9.685009918E0,4.947212219E-1,3.540287933E0,1.032365269E1
9.291627250E0,-9.505383453E0,6.137237549E-1,3.158881073E0,1.003531270E1
9.301652250E0,-9.289232941E0,6.318360901E-1,2.642305298E0,9.678369840E0
9.311678250E0,-8.994346161E0,5.637277222E-1,2.167792053E0,9.269054655E0
9.321704250E0,-8.747808838E0,3.872447205E-1,1.714085541E0,8.922567298E0
9.331729250E0,-8.616382141E0,2.505789185E-1,1.337917786E0,8.723236498E0
9.341755250E0,-8.694669342E0,8.966354370E-2,1.004710693E0,8.752985668E0
9.351781250E0,-8.991951141E0,-1.056802368E-1,7.406597900E-1,9.023022252E0
9.361806250E0,-9.404792633E0,-3.546125793E-1,5.821394348E-1,9.429462385E0
9.371832250E0,-9.895472260E0,-4.415817261E-1,4.875361633E-1,9.917310985E0
9.381857250E0,-1.027747787E1,-3.180885315E-1,3.751199341E-1,1.028923937E1
9.391883250E0,-1.038255936E1,-8.143066406E-2,2.103126526E-1,1.038500848E1
9.401909250E0,-1.032148636E1,2.475851440E-1,-0.000000000E0,1.032445539E1
9.411934250E0,-1.030097900E1,4.578977966E-1,9.131011963E-3,1.031115523E1
9.421960250E0,-1.049213150E1,6.490502930E-1,-8.232879639E-3,1.051219090E1
9.431986250E0,-1.042552002E1,8.985813904E-1,-9.086105347E-2,1.046456745E1
9.442011250E0,-1.025322830E1,1.064735870E0,-6.706054688E-2,1.030858139E1
9.452037250E0,-1.004276596E1,1.125509491E0,4.879852295E-2,1.010575584E1
9.462063250E0,-9.724827118E0,1.075962524E0,1.794767761E-1,9.785814720E0
9.472088250E0,-9.418114929E0,1.047521667E0,2.659968567E-1,9.479923248E0
9.482114250E0,-9.144334259E0,9.882449341E-1,3.887416077E-1,9.205791499E0
9.492139250E0,-8.866661682E0,8.813671875E-1,5.899232483E-1,8.929866009E0
9.502165250E0,-8.656349030E0,7.897576904E-1,7.529342651E-1,8.724849898E0
9.512191250E0,-8.531059570E0,7.042854309E-1,9.316625977E-1,8.610632413E0
9.522216250E0,-8.409512329E0,6.521937561E-1,1.115330658E0,8.508185282E0
9.532242250E0,-8.352480927E0,6.307882690E-1,1.369801483E0,8.487531300E0
9.542268250E0,-8.343349915E0,5.807922363E-1,1.698068848E0,8.534180993E0
9.552293250E0,-8.352031860E0,5.575904846E-1,2.103126526E0,8.630787017E0
9.562319250E0,-8.195756836E0,6.027964783E-1,2.458337860E0,8.577716406E0
9.572344250E0,-7.856412506E0,7.298822021E-1,2.750230865E0,8.355819248E0
9.582370250E0,-7.544760590E0,9.104067993E-1,2.916984100E0,8.140089013E0
9.592396250E0,-7.166646881E0,1.085841980E0,3.099754028E0,7.883422820E0
9.602421250E0,-6.740183716E0,1.235680389E0,3.271746368E0,7.593504253E0
9.612447250E0,-6.363417206E0,1.426832886E0,3.454366608E0,7.379808892E0
9.622473250E0,-6.116879883E0,1.569486237E0,3.656147003E0,7.297048544E0
9.632498250E0,-5.984255676E0,1.613345032E0,3.747606812E0,7.242841639E0
9.642524250E0,-5.953120422E0,1.552870789E0,3.514541473E0,7.085411224E0
9.652549250E0,-5.971981201E0,1.454525299E0,3.062032471E0,6.867040568E0
9.662575250E0,-5.962700500E0,1.330732727E0,2.626887360E0,6.650201805E0
9.672601250E0,-5.860463104E0,1.246607666E0,2.310595093E0,6.421674871E0
9.682626250E0,-5.675148468E0,1.249002686E0,2.039808197E0,6.158582249E0
9.692652250E0,-5.462889862E0,1.237776031E0,1.829794922E0,5.892656838E0
9.702678250E0,-5.273234253E0,1.139580231E0,1.667532349E0,5.646796147E0
9.712703250E0,-5.045557709E0,8.622070313E-1,1.640588379E0,5.375182210E0
9.722729250E0,-4.824467468E0,4.813989258E-1,1.577270050E0,5.098530385E0
9.732754250E0,-4.531826019E0,1.631607056E-2,1.361269226E0,4.731888332E0
9.742780250E0,-4.265978851E0,-6.465055847E-1,9.668394470E-1,4.421687862E0
9.752806250E0,-4.233945465E0,-1.381028137E0,6.256988525E-1,4.497224919E0
9.762831250E0,-4.774172058E0,-2.143692169E0,5.126838684E-1,5.258419887E0
9.772857250E0,-6.267915802E0,-2.784060516E0,4.662803650E-1,6.874240237E0
9.782883250E0,-8.323591003E0,-2.768343201E0,1.032852173E-2,8.771886795E0
9.792908250E0,-1.023736130E1,-2.166594543E0,-9.175918579E-1,1.050426928E1
9.802934250E0,-1.224558517E1,-1.116378479E0,-1.969604187E0,1.245311197E1
9.812960250E0,-1.445603851E1,-7.289840698E-2,-2.668949890E0,1.470053255E1
9.822985250E0,-1.649360138E1,8.324189758E-1,-2.367027740E0,1.668336381E1
9.833011250E0,-1.797791473E1,1.203497314E0,-4.005670166E-1,1.802260464E1
9.843036250E0,-1.895313675E1,9.370513916E-1,3.119512939E0,1.923098591E1
9.853062250E0,-1.864567612E1,1.365610199E0,7.788453827E0,2.025305266E1
9.863088250E0,-1.719519241E1,3.387156372E0,1.245020966E1,2.149779502E1
9.873113250E0,-1.695344513E1,5.118605804E0,1.619781647E1,2.399976428E1
9.883139250E0,-1.937780365E1,5.361101532E0,2.013567764E1,2.845498547E1
9.893165250E0,-2.340143646E1,4.890330505E0,2.393432831E1,3.382890233E1
9.903190250E0,-2.732672379E1,4.407285004E0,2.530188446E1,3.750145799E1
9.913216250E0,-2.987921585E1,4.044289856E0,2.294353867E1,3.788838591E1
9.923241250E0,-3.178265762E1,3.680995331E0,1.798554886E1,3.670377392E1
9.933267250E0,-3.218546997E1,3.717369690E0,1.181987045E1,3.448815234E1
9.943293250E0,-3.017215668E1,3.988605652E0,6.015540619E0,3.102345472E1
9.953318250E0,-3.017979080E1,2.907703400E0,2.583777008E0,3.042943338E1
9.963344250E0,-3.077764755E1,1.256187744E0,9.081614685E-1,3.081665708E1
9.973370250E0,-2.954436218E1,6.795867920E-2,-4.086502075E-1,2.954726637E1
9.983395250E0,-2.786425598E1,-4.065545654E-1,-3.232976990E0,2.805412961E1
9.993421250E0,-2.487123001E1,-4.502636719E-1,-5.062173157E0,2.538516135E1
1.000344762E1,-2.047307602E1,-2.918930054E-2,-5.618117065E0,2.122995368E1
1.001347263E1,-1.564232162E1,5.924679565E-1,-5.311704254E0,1.653019801E1
1.002349863E1,-1.295151718E1,9.639953613E-1,-6.168073425E0,1.437762895E1
1.003352362E1,-1.073103470E1,1.203796692E0,-7.926167450E0,1.339508726E1
1.004354962E1,-6.750362549E0,1.541344757E0,-6.406976624E0,9.433582970E0
1.005357563E1,-3.749103699E0,1.523232422E0,-3.825145569E0,5.568460665E0
1.006360063E1,-1.576820984E0,1.179547119E0,-1.910626831E0,2.743754856E0
1.007362663E1,-3.806584167E-1,7.143145752E-1,-6.849755859E-1,1.060347913E0
1.008365262E1,-2.866539001E-1,4.249662781E-1,4.071533203E-2,5.142222615E-1
1.009367763E1,-4.487667847E-1,2.655477905E-1,2.679428101E-1,5.862598447E-1
1.010370363E1,-4.574487305E-1,2.412982178E-1,3.676354980E-1,6.345392268E-1
1.011372863E1,-4.439767456E-1,3.132984924E-1,4.090992737E-1,6.801716781E-1
1.012375462E1,-5.408253479E-1,4.079017639E-1,-9.041198730E-2,6.834107355E-1
1.013378062E1,-4.378395081E-1,5.875282288E-1,-8.270301819E-1,1.104930666E0
1.014380563E1,1.004411316E-1,8.120613098E-1,-1.540446625E0,1.744278589E0
1.015383163E1,1.588646393E0,8.210426331E-1,-1.145867157E0,2.123892631E0
1.016385762E1,3.559298401E0,6.982978821E-1,-2.535726929E-1,3.636003871E0
1.017388262E1,5.583688660E0,4.764591980E-1,1.903741150E0,5.918515251E0
1.018390863E1,6.926546173E0,3.547622681E-1,3.919748840E0,7.966638509E0
1.019393363E1,7.392976227E0,2.059716797E-1,5.352419586E0,9.129453283E0
1.020395962E1,7.766449585E0,3.077600098E-1,7.562274170E0,1.084437393E1
1.021398562E1,7.494016113E0,5.866300964E-1,7.958051147E0,1.094691694E1
1.022401063E1,6.156547394E0,5.486091614E-1,6.179599457E0,8.740222953E0
1.023403663E1,4.694088593E0,4.306544495E-1,4.233197021E0,6.335604785E0
1.024406262E1,3.963308258E0,4.092489624E-1,2.661465454E0,4.791523289E0
1.025408762E1,3.426674194E0,1.812730408E-1,2.008822632E0,3.976219853E0
1.026411363E1,2.925366669E0,3.936813354E-2,1.285227356E0,3.195485777E0
1.027413963E1,2.767295380E0,-5.792953491E-2,4.426295471E-1,2.803069829E0
1.028416462E1,2.573747864E0,-1.767823792E-1,-1.499880981E-1,2.584168436E0
1.029419062E1,2.340532837E0,-3.296145630E-1,-6.081852722E-1,2.440620627E0
1.030421563E1,2.092798004E0,-4.234693909E-1,-8.063731384E-1,2.282403875E0
1.031424163E1,1.889670410E0,-4.174818420E-1,-1.061442719E0,2.207216798E0
1.032426762E1,1.790875854E0,-4.763095093E-1,-1.198557587E0,2.206954318E0
1.033429262E1,1.711391144E0,-5.017565918E-1,-1.357676697E0,2.241407000E0
1.034431863E1,1.703457642E0,-4.647834778E-1,-1.397793274E0,2.252025234E0
1.035434463E1,1.742975464E0,-4.092489624E-1,-1.399290161E0,2.272325051E0
1.036436962E1,1.697320404E0,-3.076103210E-1,-1.427281952E0,2.238895807E0
1.037439562E1,1.471290436E0,-2.646496582E-1,-8.225395203E-1,1.706255037E0
1.038442063E1,1.201251984E0,-3.375480652E-1,-1.899549866E-1,1.262152099E0
1.039444663E1,1.006656647E0,-2.869532776E-1,3.263214111E-2,1.047265317E0
1.040447262E1,9.226812744E-1,-8.921447754E-2,1.438508606E-1,9.380794355E-1
1.041449762E1,9.840536499E-1,1.257385254E-1,1.151106262E-1,9.987102778E-1
1.042452363E1,1.167272644E0,3.011737061E-1,-8.622070312E-2,1.208579760E0
1.043454963E1,1.366957397E0,2.998265076E-1,-3.552113342E-1,1.443829475E0
1.044457462E1,1.507515106E0,2.941383362E-1,-5.706134033E-1,1.638511157E0
1.045460062E1,1.541644135E0,2.317181396E-1,-7.677534485E-1,1.737758698E0
1.046462563E1,1.389859772E0,1.022373962E-1,-9.728269958E-1,1.699574957E0
1.047465163E1,8.903485107E-1,-2.814147949E-2,-1.182391205E0,1.480392304E0
1.048467763E1,2.722837830E-1,-2.218386841E-1,-1.228046265E0,1.277281679E0
1.049470262E1,-1.580712891E-1,-4.623884583E-1,-1.138532410E0,1.238969599E0
1.050472863E1,-4.409829712E-1,-5.510041809E-1,-8.993298340E-1,1.143182286E0
1.051475463E1,-3.839515686E-1,-7.126679993E-1,1.137634277E-2,8.095949020E-1
1.052477963E1,4.110452271E-1,-1.475930786E0,6.568790131E0,6.745097008E0
1.053480562E1,1.050665131E0,-2.794688416E-1,1.605456436E1,1.609133422E1
1.054483063E1,2.678979034E0,8.806187439E-1,6.594985657E0,7.172604398E0
1.055485663E1,-1.165177002E0,-2.315684509E-1,5.718707886E0,5.840794576E0
1.056488263E1,-4.684224106E1,-3.283272400E0,2.551593933E1,5.344191786E1
1.057490762E1,-1.276952563E2,-6.961273956E0,4.845828049E1,1.367579715E2
1.058493362E1,-1.392498784E2,1.538800049E-1,8.255183258E0,1.394944456E2
1.059495963E1,-9.731488266E1,7.937543793E0,-2.257635223E1,1.002141840E2
1.060498463E1,-3.901726318E1,5.388045502E0,-5.404975296E1,6.687864873E1
1.061501062E1,-2.304008789E0,1.741328888E0,-5.995691895E1,6.002643428E1
1.062503662E1,4.554728394E0,1.595382385E0,-2.958028748E1,2.997138974E1
1.063506163E1,-1.087787933E1,9.973759460E-1,-6.872957611E0,1.290583449E1
1.064508763E1,-9.230105896E0,2.960842896E-1,2.718347168E-1,9.238853547E0
1.065511262E1,-4.438420258E0,3.421884155E-1,7.604187012E-1,4.516071733E0
1.066513862E1,-1.948498077E0,5.022056580E-1,1.111438751E0,2.298728209E0
1.067516463E1,-3.869453430E-1,4.688250732E-1,8.455915833E-1,1.041416715E0
1.068518963E1,3.999682617E-1,4.288581848E-1,1.291364594E0,1.418279404E0
1.069521562E1,9.746232605E-1,5.233117676E-1,1.896107025E0,2.195214695E0
1.070524162E1,1.298849030E0,5.718109131E-1,2.115850067E0,2.547704463E0
1.071526663E1,1.517095184E0,4.710704041E-1,2.147733765E0,2.671375198E0
1.072529263E1,1.718725891E0,4.070036316E-1,2.106868744E0,2.749284734E0
1.073531762E1,1.874102783E0,4.233197021E-1,2.059118042E0,2.816279092E0
1.074534362E1,2.053878937E0,3.384461975E-1,2.271526337E0,3.081038204E0
1.075536963E1,2.289638672E0,3.008743286E-1,2.515668640E0,3.414902534E0
1.076539463E1,2.435136108E0,3.373983765E-1,2.638712769E0,3.606456794E0
1.077542062E1,2.505489807E0,2.285746765E-1,2.956202545E0,3.881862832E0
1.078544662E1,2.535277863E0,-2.665956116E-1,3.774101715E0,4.554399062E0
1.079547163E1,2.776576080E0,-7.369175720E-1,4.243076477E0,5.124072621E0
1.080549763E1,3.002606049E0,-1.147663422E0,4.205354919E0,5.293182824E0
1.081552262E1,3.191064148E0,-1.523531799E0,4.533622284E0,5.749588729E0
1.082554862E1,3.413052521E0,-1.835034027E0,5.024451599E0,6.345186464E0
1.083557463E1,3.559148712E0,-2.116149445E0,5.384452972E0,6.792493050E0
1.084559963E1,3.393592987E0,-2.249671783E0,5.561983795E0,6.892979054E0
1.085562563E1,3.113525391E0,-2.073188782E0,5.757177887E0,6.865657238E0
1.086565162E1,2.183659058E0,-1.870061188E0,5.565426636E0,6.264141550E0
1.087567663E1,1.836680603E-1,-2.207010498E0,5.816304932E0,6.223667115E0
1.088570263E1,-2.539768524E0,-3.232228546E0,8.493787079E0,9.436214520E0
1.089572863E1,-6.725813599E0,-4.841531982E0,1.125299927E1,1.397522783E1
1.090575362E1,-1.739817032E1,-8.194259949E0,1.279120056E1,2.309668890E1
1.091577962E1,-3.053290649E1,-1.170371201E1,1.262250137E1,3.505086011E1
1.092580463E1,-3.323867981E1,-9.247769165E0,1.180924255E1,3.646627592E1
1.093583063E1,-3.097897888E1,-1.856289825E0,1.019993912E1,3.266774713E1
1.094585662E1,-2.683933731E1,3.627706146E0,3.939058685E0,2.736834782E1
1.095588162E1,-2.544408875E1,4.970863037E0,2.978805542E-1,2.592681747E1
1.096590763E1,-2.253114624E1,4.440815277E0,-4.375401306E-1,2.296877952E1
1.097593363E1,-1.564621353E1,4.631668396E0,-3.385509796E0,1.666487403E1
1.098595862E1,-9.125922546E0,4.863386536E0,-9.092541962E0,1.376986965E1
1.099598462E1,-1.307680664E0,3.338357849E0,-3.444951187E1,3.463558185E1
1.100601004E1,4.789589996E0,4.851411438E-1,-2.967294479E1,3.006092459E1
1.101603604E1,2.372566223E-1,-5.358856201E-2,-5.469925232E0,5.475330536E0
1.102606204E1,-4.067641296E0,3.233276367E-2,-8.202941895E-1,4.149654646E0
1.103608704E1,-7.919431458E0,2.186952209E-1,1.495839386E0,8.062428770E0
1.104611304E1,-1.097278198E1,4.529580688E-1,1.638043671E0,1.110361664E1
1.105613904E1,-1.175580368E1,8.098159790E-1,8.066725159E-1,1.181124221E1
1.106616404E1,-1.047656387E1,1.478924561E0,-2.131567383E-1,1.058258212E1
1.107619004E1,-9.363328857E0,1.900747375E0,-9.900411987E-1,9.605464562E0
1.108621504E1,-9.409283295E0,1.913770294E0,-1.007405090E0,9.654635875E0
1.109624104E1,-9.943821716E0,1.610500946E0,-3.194357300E-1,1.007845935E1
1.110626704E1,-1.074540482E1,1.095571747E0,6.969506836E-1,1.082357346E1
1.111629204E1,-1.166105072E1,4.400848389E-1,1.693727875E0,1.179162808E1
1.112631804E1,-1.250110382E1,-2.424957275E-2,2.440375214E0,1.273709606E1
1.113634404E1,-1.271695496E1,-3.065625000E-1,2.775827637E0,1.301999013E1
1.114636904E1,-1.210847031E1,-2.888992310E-1,2.863395538E0,1.244578442E1
1.115639504E1,-1.097532669E1,-1.239422607E-1,2.447709961E0,1.124564101E1
1.116642004E1,-9.795629883E0,-1.032852173E-1,1.371448059E0,9.891708771E0
1.117644604E1,-8.880433044E0,-1.887574768E-1,3.303630066E-1,8.888580323E0
1.118647204E1,-8.152347107E0,-2.451901245E-1,-6.072871399E-1,8.178611081E0
1.119649704E1,-7.612569580E0,-2.152523804E-1,-1.925146637E0,7.855172740E0
1.120652304E1,-7.265890503E0,-1.139131165E-1,-3.246448975E0,7.958993149E0
1.121654904E1,-6.999145203E0,-1.945953369E-2,-4.041296082E0,8.082109023E0
1.122657404E1,-7.071145477E0,-7.873626709E-2,-4.388873291E0,8.322830440E0
1.123660004E1,-7.723638611E0,-3.921844482E-1,-4.684957581E0,9.041970447E0
1.124662604E1,-8.432115326E0,-7.107220459E-1,-4.727469177E0,9.693021176E0
1.125665104E1,-9.067843323E0,-7.969427490E-1,-4.147126007E0,1.000297728E1
1.126667704E1,-9.966873779E0,-6.933581543E-1,-3.575464783E0,1.061146865E1
1.127670204E1,-1.076276871E1,-4.195774841E-1,-3.112028503E0,1.121151002E1
1.128672804E1,-1.083357147E1,-2.844085693E-3,-2.652035065E0,1.115345547E1
1.129675404E1,-1.028032196E1,4.269122314E-1,-2.465073853E0,1.058035268E1
1.130677904E1,-9.602531433E0,6.774911499E-1,-2.594404907E0,9.969881695E0
1.131680504E1,-9.257349243E0,6.315367126E-1,-2.835254059E0,9.702371834E0
1.132683104E1,-9.109756165E0,4.613406372E-1,-2.855761414E0,9.558026251E0
1.133685604E1,-8.992699585E0,3.454815674E-1,-2.560275879E0,9.356442482E0
1.134688204E1,-8.923094330E0,2.110610962E-1,-2.161804504E0,9.183657110E0
1.135690704E1,-8.778045959E0,8.681945801E-2,-1.862277374E0,8.973834493E0
1.136693304E1,-8.657247162E0,-2.784210205E-2,-1.765129395E0,8.835405219E0
1.137695904E1,-8.605754242E0,-1.434017944E-1,-1.810036011E0,8.795214637E0
1.138698404E1,-8.667126617E0,-2.306703186E-1,-1.847009125E0,8.864746771E0
1.139701004E1,-8.737330627E0,-2.302212524E-1,-1.869911499E0,8.938149547E0
1.140703604E1,-8.807534637E0,-9.026229858E-2,-1.882335663E0,9.006886322E0
1.141706104E1,-8.873846741E0,2.245330811E-1,-1.876198425E0,9.072799547E0
1.142708704E1,-8.826545105E0,6.677613831E-1,-1.832489319E0,9.039459102E0
1.143711204E1,-8.660240936E0,1.047521667E0,-1.811383209E0,8.909443521E0
1.144713804E1,-8.500822449E0,1.213376770E0,-1.884281616E0,8.791290161E0
1.145716404E1,-8.443192291E0,1.184935913E0,-2.130070496E0,8.787990072E0
1.146718904E1,-8.572523346E0,9.539662170E-1,-2.393223267E0,8.951297429E0
1.147721504E1,-8.842412109E0,7.228468323E-1,-2.366279297E0,9.182049726E0
1.148724104E1,-8.974587250E0,7.102729797E-1,-2.013462982E0,9.225060281E0
1.149726604E1,-8.982371063E0,7.487429810E-1,-1.457668762E0,9.130630000E0
1.150729204E1,-9.141490173E0,8.147557068E-1,-1.093925171E0,9.242691260E0
1.151731804E1,-9.213340759E0,9.144483948E-1,-1.018032990E0,9.314411145E0
1.152734304E1,-9.115444336E0,1.023721161E0,-1.147064667E0,9.244192112E0
1.153736904E1,-8.677455139E0,1.086590424E0,-1.173409882E0,8.823593213E0
1.154739404E1,-7.826923828E0,1.058299255E0,-1.027313690E0,7.964678734E0
1.155742004E1,-6.915618896E0,9.436376953E-1,-7.441026306E-1,7.019253917E0
1.156744604E1,-6.138285370E0,7.888595581E-1,-4.255650330E-1,6.203382326E0
1.157747104E1,-5.281467133E0,6.259982300E-1,-1.140628052E-1,5.319659686E0
1.158749704E1,-4.556973724E0,4.737648010E-1,2.233355713E-1,4.586975189E0
1.159752304E1,-4.003424835E0,2.960842896E-1,6.400689697E-1,4.065066371E0
1.160754804E1,-3.546574860E0,7.783813477E-2,1.064735870E0,3.703770307E0
1.161757404E1,-3.237916718E0,-1.695973206E-1,1.551673279E0,3.594517754E0
1.162759904E1,-3.065325623E0,-3.808081055E-1,1.904489594E0,3.628817521E0
1.163762504E1,-2.969524841E0,-5.065466309E-1,2.186503143E0,3.722292743E0
1.164765104E1,-2.823278961E0,-5.007087708E-1,2.353256378E0,3.709370425E0
1.165767604E1,-2.693947906E0,-4.529580688E-1,2.235900421E0,3.530124223E0
1.166770204E1,-2.743045807E0,-4.496649170E-1,2.111808472E0,3.490878666E0
1.167772804E1,-3.066373444E0,-6.024971008E-1,2.066901855E0,3.746696162E0
1.168775304E1,-3.641477509E0,-8.228388977E-1,2.235151978E0,4.351244266E0
1.169777904E1,-4.729115753E0,-9.315129089E-1,2.590513000E0,5.472020624E0
1.170780404E1,-6.305637360E0,-9.377998352E-1,2.988984375E0,7.040920298E0
1.171783004E1,-8.103249207E0,-1.081351318E0,3.877985687E0,9.048245209E0
1.172785604E1,-1.079929276E1,-1.654509430E0,5.558091888E0,1.225783467E1
1.173788104E1,-1.440619217E1,-2.701132965E0,7.968529358E0,1.668328362E1
1.174790704E1,-1.679118256E1,-3.862418060E0,1.104403381E1,2.046540417E1
1.175793304E1,-1.520552994E1,-2.715652771E0,1.411864014E1,2.092651213E1
1.176795804E1,-1.201551361E1,1.035696259E0,1.543290710E1,1.958621596E1
1.177798404E1,-1.102696930E1,4.441713409E0,1.619048172E1,2.008617854E1
1.178800904E1,-1.211535599E1,6.535110168E0,1.761147675E1,2.235293334E1
1.179803504E1,-1.478610214E1,7.113657074E0,1.787732391E1,2.426585345E1
1.180806104E1,-1.836171661E1,6.927144928E0,1.672681641E1,2.578612730E1
1.181808604E1,-2.118095398E1,6.483617249E0,1.652653290E1,2.763686657E1
1.182811204E1,-2.213776428E1,5.405858459E0,1.790411819E1,2.898036165E1
1.183813804E1,-2.262425262E1,3.910318451E0,2.013073792E1,3.053512741E1
1.184816304E1,-2.392295197E1,1.788480835E0,2.137944122E1,3.213388868E1
1.185818904E1,-2.548375626E1,-4.616400146E-1,2.139455978E1,3.327705114E1
1.186821504E1,-2.707389954E1,-2.041604462E0,2.057785812E1,3.406776233E1
1.187824004E1,-2.879307449E1,-2.916535034E0,1.901226379E1,3.462677418E1
1.188826604E1,-3.019416092E1,-3.362158356E0,1.660706543E1,3.462349036E1
1.189829104E1,-3.030313431E1,-3.204386444E0,1.258403137E1,3.296825575E1
1.190831704E1,-2.876702866E1,-2.282603302E0,7.676636353E0,2.986106095E1
1.191834304E1,-2.681583618E1,-8.337661743E-1,3.896247711E0,2.711023759E1
1.192836804E1,-2.442081665E1,7.244934082E-1,3.847000122E-1,2.443458964E1
1.193839404E1,-2.096121094E1,1.932182007E0,-3.044967957E0,2.126916832E1
1.194842004E1,-1.820514221E1,2.293530579E0,-4.895270233E0,1.899081768E1
1.195844504E1,-1.621188721E1,1.826501770E0,-6.317013702E0,1.749474371E1
1.196847104E1,-1.403915543E1,1.390757904E0,-6.950047302E0,1.572689576E1
1.197849604E1,-1.013662079E1,1.689686279E0,-4.748874664E0,1.132068599E1
1.198852204E1,-6.448889465E0,1.867217102E0,-1.595981140E0,6.900857254E0
1.199854804E1,-4.131259003E0,1.520538025E0,-1.203497314E-1,4.403841606E0
1.200857225E1,-2.608924713E0,1.228794708E0,5.252577209E-1,2.931265984E0
1.201859825E1,-1.618584137E0,1.188678131E0,2.330653381E-1,2.021655203E0
1.202862425E1,-5.520520020E-1,1.301543427E0,-3.249742126E-1,1.450649835E0
1.203864925E1,7.626640320E-1,1.637594604E0,-9.807604980E-1,2.055544616E0
1.204867525E1,2.844085693E-3,1.629212036E0,-9.852511597E-1,1.903958979E0
1.205870025E1,-5.451663208E-1,1.523232422E0,9.131011963E-2,1.620426137E0
1.206872625E1,-3.891906738E-3,1.687440948E0,9.081614685E-1,1.916306175E0
1.207875225E1,5.156776428E-1,1.871558075E0,6.044430542E-1,2.033225139E0
1.208877725E1,1.478924561E0,2.259251862E0,2.218386841E-1,2.709363252E0
1.209880325E1,2.386786652E0,2.525548096E0,-6.340814209E-1,3.532308445E0
1.210882925E1,3.104843445E0,2.250569916E0,-1.182241516E0,4.012831016E0
1.211885425E1,4.975653076E0,1.905088348E0,1.797761536E-1,5.330929057E0
1.212888025E1,7.359445953E0,1.840273132E0,1.506167908E0,7.734118677E0
1.213890525E1,9.178313599E0,1.814376984E0,2.602039032E0,9.711025254E0
1.214893125E1,9.769134979E0,1.306632843E0,3.697610779E0,1.052689950E1
1.215895725E1,9.513766022E0,9.210346985E-1,4.845723267E0,1.071639318E1
1.216898225E1,9.218280487E0,7.173083496E-1,5.233866119E0,1.062471557E1
1.217900825E1,8.427774353E0,1.661544800E-1,4.432283020E0,9.523661094E0
1.218903425E1,6.840175781E0,-8.234376526E-1,3.752696228E0,7.845303262E0
1.219905925E1,5.043611755E0,-1.598525848E0,2.973267059E0,6.069070887E0
1.220908525E1,3.719465332E0,-1.687890015E0,2.229014740E0,4.653160407E0
1.221911025E1,2.696492615E0,-1.583556976E0,1.428479462E0,3.437917784E0
1.222913625E1,1.990710297E0,-1.476978607E0,6.066883850E-1,2.551952995E0
1.223916225E1,1.533860321E0,-1.418600006E0,-7.080276489E-2,2.090494318E0
1.224918725E1,1.450034637E0,-1.270258484E0,-4.813989258E-1,1.986932810E0
1.225921325E1,1.605411530E0,-9.386979675E-1,-4.629872131E-1,1.916469987E0
1.226923925E1,1.747017059E0,-4.998106384E-1,-3.345542908E-1,1.847648736E0
1.227926425E1,1.686243439E0,-8.921447754E-2,-3.782633972E-1,1.730450622E0
1.228929025E1,1.621278534E0,2.089654541E-1,-2.377056885E-1,1.651882151E0
1.229931525E1,1.371448059E0,5.504054260E-1,-5.123844910E-1,1.564082408E0
1.230934125E1,9.491761780E-1,8.348139954E-1,-6.288423157E-1,1.411840105E0
1.231936725E1,1.721420288E-2,1.477277985E0,1.806742859E-1,1.488384954E0
1.232939225E1,-1.045276337E0,2.288141785E0,-5.721102905E-1,2.579826667E0
1.233941825E1,-5.554948425E-1,2.281555481E0,-2.796035614E0,3.651285402E0
1.234944425E1,6.141728210E-1,1.650318146E0,-4.028273163E0,4.396332894E0
1.235946925E1,1.405277710E0,1.161135406E0,-4.278403015E0,4.650566980E0
1.236949525E1,1.764680328E0,8.063731384E-1,-3.805985413E0,4.271985400E0
1.237952025E1,1.863325195E0,5.851332092E-1,-2.941832428E0,3.531110263E0
1.238954625E1,2.068398743E0,4.578977966E-1,-2.132016449E0,3.005567815E0
1.239957225E1,2.262545013E0,3.817062378E-1,-1.449735260E0,2.714137416E0
1.240959725E1,2.206411743E0,2.597099304E-1,-8.786727905E-1,2.389093531E0
1.241962325E1,1.939816132E0,1.496887207E-3,-7.283853149E-1,2.072060335E0
1.242964925E1,1.755699005E0,-2.086660767E-1,-7.195536804E-1,1.908868258E0
1.243967425E1,1.782193909E0,-3.411405945E-1,-7.607180786E-1,1.967557884E0
1.244970025E1,1.522184601E0,-5.689668274E-1,-6.780899048E-1,1.760845004E0
1.245972625E1,1.033001862E0,-8.544232178E-1,2.119592285E-1,1.357224593E0
1.246975125E1,1.981728973E0,-1.457818451E0,2.082170105E0,3.223029120E0
1.247977725E1,2.083966370E0,-4.187242584E0,1.185654419E1,1.274572699E1
1.248980225E1,1.149309998E0,-7.111561432E0,3.053769653E1,3.137588451E1
1.249982825E1,-1.965038681E1,-1.694416443E1,4.108715881E1,4.859420778E1
1.250985425E1,-1.047256718E2,-6.479590622E1,8.379574585E1,1.489553719E2
1.251987925E1,-1.250769012E2,-3.726021698E1,3.369418259E1,1.347881780E2
1.252990525E1,-8.197672852E1,1.957688965E1,-4.224814453E0,8.438772235E1
1.253993125E1,-5.723632645E1,1.466814743E1,6.996750183E0,5.949879097E1
1.254995625E1,-4.391403030E1,4.679119720E0,7.435487823E0,4.478417910E1
1.255998225E1,-2.508288986E1,4.572990417E0,5.539380798E0,2.609115453E1
1.257000725E1,-1.319491104E1,3.406765594E0,1.532064056E0,1.371345870E1
1.258003325E1,-3.867357788E0,2.545756073E0,-1.464554443E0,4.856155883E0
1.259005925E1,1.272952881E0,1.499282227E0,-2.080972595E0,2.863337768E0
1.260008425E1,2.893033905E0,1.086740112E-1,-2.408940582E0,3.766224893E0
1.261011025E1,3.984713745E0,-4.143383789E-1,-4.417912903E0,5.963855661E0
1.262013625E1,4.643194427E0,-1.230441284E-1,-5.311105499E0,7.055652767E0
1.263016125E1,5.510490875E0,2.525248718E-1,-5.982459412E0,8.137511850E0
1.264018725E1,5.569019165E0,5.285508728E-1,-5.508694611E0,7.851054502E0
1.265021325E1,4.796026611E0,6.194119263E-1,-4.171974335E0,6.386776357E0
1.266023825E1,3.639232178E0,6.393205261E-1,-2.720742188E0,4.588592336E0
1.267026425E1,2.373314667E0,6.740483093E-1,-1.450334015E0,2.861893147E0
1.268028925E1,1.057101746E0,7.399113464E-1,-6.785389709E-1,1.457857344E0
1.269031525E1,5.733078003E-2,9.698332214E-1,-4.311035156E-1,1.062879832E0
1.270034125E1,-3.188369751E-1,1.227896576E0,-6.725514221E-1,1.435866440E0
1.271036625E1,-4.379891968E-1,1.539099426E0,-1.019829254E0,1.897554555E0
1.272039225E1,-5.188211060E-1,1.738933868E0,-1.239272919E0,2.197467566E0
1.273041825E1,-4.938230896E-1,1.774709473E0,-1.450483704E0,2.344644521E0
1.274044325E1,-2.520758057E-1,1.595681763E0,-1.884431305E0,2.482100691E0
1.275046925E1,1.552272034E-1,1.192120972E0,-1.855092316E0,2.210569021E0
1.276049425E1,8.650511169E-1,6.083349609E-1,-1.073417816E0,1.506854561E0
1.277052025E1,1.678609314E0,-5.897735596E-2,4.188290405E-1,1.731076348E0
1.278054625E1,2.093396759E0,-6.890171814E-1,2.364033966E0,3.231982559E0
1.279057125E1,1.896855469E0,-1.251697083E0,4.334835663E0,4.894446494E0
1.280059725E1,1.225950623E0,-1.581910400E0,6.244714050E0,6.557579509E0
1.281062325E1,4.149371338E-1,-1.506018219E0,8.211025085E0,8.358301063E0
1.282064825E1,-8.834628296E-1,-1.072819061E0,1.054916290E1,1.064031415E1
1.283067425E1,-2.871029663E0,2.829116821E-2,1.173694290E1,1.208302282E1
1.284069925E1,-9.455986176E0,1.681902466E0,1.409573776E1,1.705679611E1
1.285072525E1,-2.403626633E1,1.015488281E0,2.111344437E1,3.200860585E1
1.286075125E1,-3.232453079E1,-9.000782776E-1,2.449685852E1,4.056823276E1
1.287077625E1,-3.169568848E1,-1.551373901E0,2.207684097E1,3.865760386E1
1.288080225E1,-2.995540741E1,-4.640350342E-1,1.673534866E1,3.431637592E1
1.289082825E1,-2.506881912E1,1.734293518E0,8.691675568E0,2.658944697E1
1.290085325E1,-1.840362946E1,2.757415924E0,3.084336090E0,1.886292790E1
1.291087925E1,-1.145897095E1,2.912643127E0,6.336323547E-1,1.184031229E1
1.292090425E1,-5.607489166E0,2.363435211E0,-1.822160797E0,6.352167403E0
1.293093025E1,-2.518063660E0,1.631008301E0,-6.049370270E0,6.752459799E0
1.294095625E1,-1.351838837E0,1.413061523E0,-1.028720764E1,1.047143028E1
1.295098125E1,-5.673202515E-2,1.778451691E0,-2.611918488E1,2.617972359E1
1.296100725E1,6.159690857E-1,1.705553284E0,-1.862711472E1,1.871517386E1
1.297103325E1,-2.174977112E0,1.520088959E0,-5.878276062E0,6.449443801E0
1.298105825E1,-4.926555176E0,1.337618408E0,-3.597019958E0,6.244895635E0
1.299108425E1,-7.041207733E0,1.200204163E0,-2.364183655E0,7.523859430E0
1.300111025E1,-8.869655457E0,7.018904114E-1,-2.084864502E0,9.138385966E0
1.301113579E1,-1.029948212E1,3.981719971E-2,-1.575473785E0,1.041935866E1
1.302116179E1,-1.128428421E1,-5.363346863E-1,-8.795709229E-1,1.133121221E1
1.303118679E1,-1.177780792E1,-7.454498291E-1,-1.922003174E-1,1.180294014E1
1.304121279E1,-1.159069702E1,-5.352868652E-1,5.760021973E-1,1.161733911E1
1.305123879E1,-1.104268661E1,-1.740879822E-1,1.127605133E0,1.110147412E1
1.306126379E1,-1.082189575E1,8.607101440E-2,1.394799500E0,1.091175062E1
1.307128979E1,-1.078118042E1,4.290078735E-1,1.396146698E0,1.087966565E1
1.308131579E1,-1.064586182E1,7.676037598E-1,1.438807983E0,1.077003982E1
1.309134079E1,-1.034378998E1,9.250762939E-1,1.400038605E0,1.047902025E1
1.310136679E1,-9.991422729E0,9.695338440E-1,1.124162292E0,1.010110216E1
1.311139179E1,-9.813592529E0,9.880952454E-1,6.511459351E-1,9.884681157E0
1.312141779E1,-9.862391052E0,9.662406921E-1,-1.175056458E-1,9.910307055E0
1.313144379E1,-9.893675995E0,8.780740356E-1,-6.746470642E-1,9.955450134E0
1.314146879E1,-9.880054321E0,8.105644226E-1,-7.920030212E-1,9.944835688E0
1.315149479E1,-9.870773621E0,7.945477295E-1,-7.628137207E-1,9.932037190E0
1.316152079E1,-9.912237396E0,7.599696350E-1,-6.779402161E-1,9.964417042E0
1.317154579E1,-1.003917343E1,7.015910339E-1,-6.381230164E-1,1.008387000E1
1.318157179E1,-1.001222946E1,6.709048462E-1,-6.596781921E-1,1.005634265E1
1.319159679E1,-9.646390228E0,8.867559814E-1,-7.438032532E-1,9.715576354E0
1.320162279E1,-9.583970032E0,1.012943573E0,-7.824229431E-1,9.669060033E0
1.321164879E1,-9.694140930E0,1.048569489E0,-8.021818542E-1,9.783627245E0
1.322167379E1,-9.604776764E0,1.087488556E0,-8.277786255E-1,9.701524906E0
1.323169979E1,-9.332642670E0,1.134939880E0,-8.270301819E-1,9.437705582E0
1.324172579E1,-9.075028381E0,1.123563538E0,-8.710386658E-1,9.185708655E0
1.325175079E1,-9.094637604E0,1.088985443E0,-9.154962158E-1,9.205240668E0
1.326177679E1,-9.144483948E0,1.083446960E0,-9.728269958E-1,9.259688783E0
1.327180279E1,-9.003327484E0,1.082399139E0,-1.006357269E0,9.123828617E0
1.328182779E1,-9.067543945E0,9.000782776E-1,-1.074765015E0,9.175271873E0
1.329185379E1,-9.253008270E0,5.424719238E-1,-1.215173035E0,9.348212842E0
1.330187879E1,-9.282347260E0,1.004411316E-1,-1.250349884E0,9.366719484E0
1.331190479E1,-9.211095428E0,-2.522254944E-1,-1.031954041E0,9.272153247E0
1.332193079E1,-8.975036316E0,-4.671784973E-1,-6.289920044E-1,9.009171081E0
1.333195579E1,-8.537496185E0,-4.893324280E-1,-1.743873596E-1,8.553285818E0
1.334198179E1,-8.121211853E0,-4.475692749E-1,3.104544067E-1,8.139458345E0
1.335200779E1,-7.781867523E0,-3.393443298E-1,8.219407654E-1,7.832509390E0
1.336203279E1,-7.374265137E0,-1.814227295E-1,1.169817352E0,7.468679478E0
1.337205879E1,-7.059769135E0,-2.918930054E-2,1.438209229E0,7.204834352E0
1.338208379E1,-7.036118317E0,7.454498291E-2,1.778002625E0,7.257672578E0
1.339210979E1,-7.159761200E0,2.118095398E-1,2.218686218E0,7.498640694E0
1.340213579E1,-7.122638397E0,4.243675232E-1,2.685565338E0,7.623931185E0
1.341216079E1,-6.857839050E0,7.078779602E-1,3.065325623E0,7.545016158E0
1.342218679E1,-6.538852386E0,1.009351044E0,3.315006409E0,7.400314017E0
1.343221279E1,-6.062542877E0,1.205892334E0,3.406166840E0,7.057660731E0
1.344223779E1,-5.466183014E0,1.222058716E0,3.361858978E0,6.532586014E0
1.345226379E1,-4.815186768E0,1.085692291E0,3.230731659E0,5.899354067E0
1.346228879E1,-4.130809937E0,9.478289795E-1,3.005749512E0,5.195815685E0
1.347231479E1,-3.477568359E0,8.300239563E-1,2.822380829E0,4.555025247E0
1.348234079E1,-2.860401764E0,7.291337585E-1,2.541714478E0,3.895362213E0
1.349236579E1,-2.359692993E0,6.424639893E-1,2.111509094E0,3.231003196E0
1.350239179E1,-1.882934418E0,4.791535950E-1,1.572929077E0,2.499827208E0
1.351241779E1,-1.501228180E0,2.436932373E-1,1.002315674E0,1.821457974E0
1.352244279E1,-1.276545410E0,8.831634521E-3,6.852749634E-1,1.448878172E0
1.353246879E1,-1.445993042E0,-3.165916443E-1,7.032376099E-1,1.638801172E0
1.354249479E1,-2.231858826E0,-7.836204529E-1,1.029708710E0,2.579836208E0
1.355251979E1,-3.611839142E0,-1.316661987E0,1.604214020E0,4.165631212E0
1.356254579E1,-5.647006989E0,-1.732946320E0,2.302811279E0,6.339931440E0
1.357257079E1,-8.830287323E0,-2.082768860E0,3.822002106E0,9.844775286E0
1.358259679E1,-1.461770233E1,-2.231858826E0,6.266718292E0,1.606020465E1
1.359262279E1,-2.251527924E1,-2.029928741E0,8.088280334E0,2.400997061E1
1.360264779E1,-3.091655869E1,-2.099234619E0,9.780511322E0,3.249459630E1
1.361267379E1,-3.637420944E1,-2.293979645E0,1.340642120E1,3.883397462E1
1.362269979E1,-3.552472595E1,-1.129551086E0,1.851589600E1,4.007643253E1
1.363272479E1,-3.277434540E1,3.353027344E-2,2.188793381E1,3.941117211E1
1.364275079E1,-3.194147736E1,-3.231779480E-1,1.908800629E1,3.721175088E1
1.365277679E1,-3.229144958E1,-6.364764404E-1,1.302815781E1,3.482636522E1
1.366280179E1,-3.442406479E1,3.604504395E-1,9.870773621E0,3.581310281E1
1.367282779E1,-3.723941025E1,2.440973969E0,9.312734070E0,3.846373676E1
1.368285279E1,-3.789699280E1,4.310436401E0,8.187673645E0,3.901025410E1
1.369287879E1,-3.575898880E1,6.069727936E0,5.757327576E0,3.672456532E1
1.370290479E1,-3.184388031E1,7.007827148E0,3.165317688E0,3.275914514E1
1.371292979E1,-2.774824722E1,6.501579895E0,5.831872559E-1,2.850571649E1
1.372295579E1,-2.337838440E1,5.163961487E0,-1.356928253E0,2.398033798E1
1.373298179E1,-1.878803009E1,3.483705597E0,-2.303110657E0,1.924657367E1
1.374300679E1,-1.584934113E1,1.717977448E0,-2.013313293E0,1.606880490E1
1.375303279E1,-1.344863342E1,8.515791321E-1,-1.699266357E0,1.358228383E1
1.376305779E1,-1.043659698E1,5.060975647E-1,-1.160686340E0,1.051312913E1
1.377308379E1,-8.472680969E0,9.430389404E-3,-1.201102295E0,8.557397879E0
1.378310979E1,-6.159690857E0,-2.074685669E-1,-1.320553894E0,6.303070462E0
1.379313479E1,-3.558999023E0,-1.541793823E-1,-6.465055847E-1,3.620526868E0
1.380316079E1,-1.569785614E0,-2.469863892E-2,-3.942800903E-1,1.618732123E0
1.381318679E1,-4.691244507E-1,9.969268799E-2,-3.942800903E-1,6.208648580E-1
1.382321179E1,-4.016148376E-1,2.441423035E-1,-8.152047729E-1,9.409881848E-1
1.383323779E1,-7.243437195E-1,4.182302856E-1,-1.246158600E0,1.500833652E0
1.384326379E1,-9.581575012E-1,6.318360901E-1,-1.851799164E0,2.178633238E0
1.385328879E1,-9.620494080E-1,7.529342651E-1,-2.285447388E0,2.591470400E0
1.386331479E1,-2.067201233E-1,7.494914246E-1,-1.717229004E0,1.885032110E0
1.387333979E1,1.916913757E0,8.692424011E-1,-6.960525513E-1,2.216896448E0
1.388336579E1,5.305267639E0,1.093775482E0,8.204438782E-1,5.478625529E0
1.389339179E1,8.576415253E0,1.223705292E0,3.442391510E0,9.322146348E0
1.390341679E1,1.085422852E1,8.888516235E-1,6.703210602E0,1.278817291E1
1.391344279E1,1.178259796E1,6.372248840E-1,8.883277130E0,1.476984370E1
1.392346879E1,1.107127716E1,5.254074097E-1,9.189839630E0,1.439799928E1
1.393349379E1,9.734257507E0,4.273612976E-1,7.929011536E0,1.256215072E1
1.394351979E1,8.275840302E0,1.541793823E-2,5.801336060E0,1.010669434E1
1.395354479E1,6.811285858E0,-2.163002014E-1,4.002526703E0,7.903203200E0
1.396357079E1,5.367987213E0,-3.171903992E-1,2.727927246E0,6.029716704E0
1.397359679E1,4.161645813E0,-5.213658142E-1,2.023043060E0,4.656589032E0
1.398362179E1,3.117566986E0,-4.953199768E-1,1.458267517E0,3.477227336E0
1.399364779E1,2.295775909E0,-4.318519592E-1,9.593550110E-1,2.525360406E0
1.400367379E1,1.711840210E0,-4.418811035E-1,5.715115356E-1,1.858031552E0
1.401369850E1,1.225501556E0,-5.014572144E-1,3.435356140E-1,1.367965687E0
1.402372450E1,8.342152405E-1,-5.016069031E-1,8.247848511E-2,9.768967464E-1
1.403375050E1,5.276527405E-1,-5.710624695E-1,-3.263214111E-1,8.432173041E-1
1.404377550E1,3.303630066E-1,-7.259902954E-1,-5.334906006E-1,9.595904575E-1
1.405380150E1,9.984237671E-2,-8.114625549E-1,-6.114784241E-1,1.020953398E0
1.406382650E1,-6.107299805E-2,-8.554710388E-1,-8.550219727E-1,1.211042189E0
1.407385250E1,-8.562194824E-2,-8.069718933E-1,-9.662406921E-1,1.261806574E0
1.408387850E1,1.182540894E-2,-7.536827087E-1,-9.590556335E-1,1.219821780E0
1.409390350E1,8.053253174E-2,-6.450086975E-1,-1.355131989E0,1.502965207E0
1.410392950E1,2.607577515E-1,-6.068380737E-1,-1.827549591E0,1.943240737E0
1.411395550E1,5.360353088E-1,-7.110214233E-1,-2.096390533E0,2.277660771E0
1.412398050E1,1.016386414E0,-6.867718506E-1,-2.213596802E0,2.530752401E0
1.413400650E1,1.631008301E0,-4.514611816E-1,-1.998643799E0,2.618889519E0
1.414403150E1,2.020198975E0,-2.823129272E-1,-1.749412079E0,2.687256428E0
1.415405750E1,2.362088013E0,-1.610650635E-1,-1.577719116E0,2.845100937E0
1.416408350E1,2.598147125E0,8.457412720E-2,-2.770588531E0,3.799168604E0
1.417410850E1,2.364782410E0,2.225871277E-1,-4.982239380E0,5.519461035E0
1.418413450E1,1.871707764E0,9.624984741E-2,-5.628894653E0,5.932706718E0
1.419416050E1,8.119116211E-1,-2.565664673E-1,-4.867278442E0,4.941196846E0
1.420418550E1,-4.864883423E-2,-4.209246826E-1,-3.661835175E0,3.686269272E0
1.421421150E1,-3.950285339E-1,-4.363426208E-1,-2.743345184E0,2.805777116E0
1.422423650E1,-5.334906006E-1,-4.875361633E-1,-1.959575043E0,2.088597156E0
1.423426250E1,-6.274951172E-1,-4.667294312E-1,-1.192270660E0,1.425866688E0
1.424428850E1,-8.590635681E-1,-4.700225830E-1,-5.508544922E-1,1.123544442E0
1.425431350E1,-2.345023499E0,-8.598120117E-1,1.586700439E-2,2.497731704E0
1.426433950E1,-5.817203064E0,-1.943708038E0,3.687431946E0,7.156466082E0
1.427436550E1,9.475296021E-2,2.377056885E-1,8.366551666E0,8.370464079E0
1.428439050E1,1.539548492E0,2.415676575E0,6.624174957E0,7.217021320E0
1.429441650E1,-4.283267899E1,4.903353424E0,2.795736237E1,5.138380459E1
1.430444250E1,-1.360992302E2,5.048701172E0,7.686381088E1,1.563858538E2
1.431446750E1,-1.523221944E2,8.415350189E0,3.941169296E1,1.575631637E2
1.432449350E1,-9.843350647E1,2.011247589E1,-2.111209717E0,1.004894228E2
1.433451950E1,-4.237193710E1,1.688563614E1,4.277504883E0,4.581269267E1
1.434454450E1,-1.939861038E1,7.893535309E0,-4.301006012E0,2.138019264E1
1.435457050E1,-6.204447784E0,3.696113892E0,-1.082144669E1,1.301000148E1
1.436459550E1,3.998634796E0,3.129991150E-1,-2.214884125E1,2.250906967E1
1.437462150E1,8.407416687E0,-1.345402222E0,-2.292407913E1,2.445420550E1
1.438464750E1,3.257675629E0,-1.199306030E0,-4.631219330E0,5.787830158E0
1.439467250E1,-1.336720276E-1,-6.249504089E-1,-1.344204712E-1,6.530697418E-1
1.440469850E1,2.909948730E-1,-4.502636719E-1,3.523672485E-1,6.415435045E-1
1.441472450E1,5.400769043E-1,-4.261637878E-1,4.754113770E-1,8.362503297E-1
1.442474950E1,4.902305603E-1,-5.060975647E-1,3.638932800E-1,7.930189572E-1
1.443477550E1,5.249583435E-1,-6.015989685E-1,3.908372498E-1,8.889636309E-1
1.444480050E1,5.777984619E-1,-6.053411865E-1,4.665797424E-1,9.581156876E-1
1.445482650E1,6.948550415E-1,-6.542893982E-1,5.230123901E-1,1.088329043E0
1.446485250E1,7.620652771E-1,-6.924600220E-1,5.016069031E-1,1.145361888E0
1.447487750E1,8.526269531E-1,-7.683522034E-1,5.580395508E-1,1.276223323E0
1.448490350E1,9.653425598E-1,-9.134005737E-1,7.632627869E-1,1.532565479E0
1.449492950E1,1.001716919E0,-8.822653198E-1,1.154249725E0,1.764687312E0
1.450495450E1,1.203647003E0,-9.148974609E-1,1.414558411E0,2.070453808E0
1.451498050E1,1.415306854E0,-9.403445435E-1,1.787133636E0,2.466006486E0
1.452500650E1,1.588347015E0,-8.006849670E-1,2.117646332E0,2.765568413E0
1.453503150E1,1.717827759E0,-7.068301392E-1,2.386636963E0,3.024330843E0
1.454505750E1,1.755699005E0,-6.962022400E-1,2.655777283E0,3.258884707E0
1.455508250E1,1.434616699E0,-7.354206848E-1,2.959046631E0,3.369707053E0
1.456510850E1,8.336164856E-1,-7.470964050E-1,3.171005859E0,3.362788671E0
1.457513450E1,3.640429688E-1,-7.834707642E-1,2.905907135E0,3.031608484E0
1.458515950E1,-6.810836792E-2,-8.397537231E-1,2.683769073E0,2.812906238E0
1.459518550E1,-4.543052673E-1,-8.702902222E-1,2.395618286E0,2.588973797E0
1.460521150E1,-8.419990540E-1,-9.550140381E-1,2.334096222E0,2.658762756E0
1.461523650E1,-1.219214630E0,-1.122665405E0,2.559078369E0,3.048892262E0
1.462526250E1,-1.660946045E0,-1.537752228E0,3.487896881E0,4.157986091E0
1.463528850E1,-2.606529694E0,-2.304757233E0,6.165828094E0,7.079783827E0
1.464531350E1,-5.019062805E0,-3.287164307E0,1.041279648E1,1.201760255E1
1.465533950E1,-1.204036194E1,-4.894521790E0,1.510838196E1,1.992962279E1
1.466536450E1,-2.371308838E1,-7.358547821E0,1.750400024E1,3.037842674E1
1.467539050E1,-3.100771912E1,-8.200696564E0,1.862726440E1,3.709049808E1
1.468541650E1,-3.337714188E1,-4.768633575E0,1.857143051E1,3.849248624E1
1.469544150E1,-3.207035934E1,2.165995789E0,1.649300262E1,3.612780954E1
1.470546750E1,-2.936189163E1,9.128616943E0,1.577659241E1,3.455941544E1
1.471549350E1,-2.359663055E1,1.168634811E1,9.988578644E0,2.816280187E1
1.472551850E1,-1.752106476E1,9.907746735E0,6.717880096E0,2.121982725E1
1.473554450E1,-1.128233826E1,8.717272339E0,6.430777130E0,1.564087236E1
1.474556950E1,-5.111720123E0,7.326065369E0,1.386416931E0,9.040081212E0
1.475559550E1,-6.105802917E-1,4.952451324E0,-1.235156479E1,1.332143893E1
1.476562150E1,5.522915039E0,3.670966187E0,-3.283751404E1,3.350046136E1
1.477564650E1,5.736371155E0,3.845353546E0,-1.882590134E1,2.005261228E1
1.478567250E1,-5.664221191E-1,3.091072083E0,-6.132148132E0,6.890486293E0
1.479569850E1,-5.101391602E0,1.988764343E0,-3.712280273E0,6.615164753E0
1.480572350E1,-7.533234558E0,1.284029846E0,-2.508932648E0,8.043202011E0
1.481574950E1,-8.725056152E0,8.574169922E-1,-2.225272522E0,9.045087427E0
1.482577550E1,-8.761280823E0,6.888674927E-1,-2.001487885E0,9.013353085E0
1.483580050E1,-8.546028442E0,6.376739502E-1,-1.984872437E0,8.796644178E0
1.484582650E1,-8.081694031E0,3.353027344E-1,-1.763782196E0,8.278715720E0
1.485585250E1,-7.488627319E0,-1.468446350E-1,-1.009650421E0,7.557810294E0
1.486587750E1,-7.138505402E0,-5.138813782E-1,2.692900085E-1,7.162042345E0
1.487590350E1,-6.862928467E0,-5.406756592E-1,1.738484802E0,7.100313142E0
1.488592850E1,-6.829398193E0,-3.242257690E-1,3.932921448E0,7.887564462E0
1.489595450E1,-7.291636963E0,1.508862305E-1,6.871011658E0,1.002005676E1
1.490598050E1,-8.305927734E0,7.297325134E-1,9.677076416E0,1.277367422E1
1.491600550E1,-9.766141205E0,1.248104553E0,1.167003204E1,1.526842909E1
1.492603150E1,-1.133996841E1,1.606609039E0,1.109268265E1,1.594439352E1
1.493605750E1,-1.239692047E1,1.858984222E0,8.468938751E0,1.512819828E1
1.494608250E1,-1.237761063E1,2.315834198E0,6.214177551E0,1.404223399E1
1.495610850E1,-1.123653351E1,2.756517792E0,4.481231232E0,1.240723615E1
1.496613350E1,-9.552984467E0,2.768043823E0,3.469634857E0,1.053375265E1
1.497615950E1,-8.424032135E0,2.473456421E0,2.950065308E0,9.262029443E0
1.498618550E1,-7.745642853E0,2.152074738E0,2.602039032E0,8.449675497E0
1.499621050E1,-7.262148285E0,1.905238037E0,2.311942291E0,7.855813570E0
1.500623617E1,-6.905440063E0,1.647474060E0,1.793270874E0,7.322232834E0
1.501626217E1,-6.748865662E0,1.371148682E0,1.189127197E0,6.988652225E0
1.502628717E1,-6.948550415E0,1.149010620E0,6.448590088E-1,7.072370283E0
1.503631317E1,-7.447911987E0,9.054670715E-1,1.893562317E-1,7.505139530E0
1.504633917E1,-8.035290527E0,7.161108398E-1,-2.252815247E-1,8.070282545E0
1.505636417E1,-8.593180389E0,6.129753113E-1,-5.563929749E-1,8.632963632E0
1.506639017E1,-8.925339661E0,5.210664368E-1,-6.730004883E-1,8.965831135E0
1.507641517E1,-8.935368805E0,4.168830872E-1,-5.499563599E-1,8.961978531E0
1.508644117E1,-8.650211792E0,3.522175598E-1,-3.757186890E-2,8.657461112E0
1.509646717E1,-8.170609131E0,4.064048767E-1,6.920109558E-1,8.209926775E0
1.510649217E1,-7.593110046E0,5.758525085E-1,1.336121521E0,7.731244855E0
1.511651817E1,-7.069199524E0,7.400610352E-1,1.876198425E0,7.351285111E0
1.512654417E1,-6.653364258E0,8.918453979E-1,2.110311584E0,7.036764821E0
1.513656917E1,-6.226751404E0,1.074615326E0,2.135010223E0,6.669745107E0
1.514659517E1,-5.771697693E0,1.246158600E0,2.001038818E0,6.234545843E0
1.515662117E1,-5.188510437E0,1.344354401E0,1.830393677E0,5.663768209E0
1.516664617E1,-4.357438660E0,1.300196228E0,1.686991882E0,4.850126134E0
1.517667217E1,-3.533252563E0,1.144969025E0,1.603764954E0,4.045601287E0
1.518669717E1,-2.852917328E0,1.031205597E0,1.541793823E0,3.402888546E0
1.519672317E1,-2.229763184E0,8.240364075E-1,1.418450317E0,2.768190954E0
1.520674917E1,-1.817221069E0,6.752458191E-1,1.197659454E0,2.278735943E0
1.521677417E1,-1.885179749E0,7.165599060E-1,7.788304138E-1,2.161929138E0
1.522680017E1,-2.376009064E0,7.750881958E-1,2.915936279E-1,2.516189108E0
1.523682617E1,-3.272195435E0,8.680448914E-1,-1.407073975E-1,3.388298019E0
1.524685117E1,-4.283941498E0,1.015188904E0,-2.972817993E-1,4.412611442E0
1.525687717E1,-5.559439087E0,1.072669373E0,-2.917433167E-1,5.669488223E0
1.526690317E1,-7.403604126E0,8.029302979E-1,-5.774990845E-1,7.469374559E0
1.527692817E1,-1.081081879E1,2.718347168E-1,-9.759704590E-1,1.085818656E1
1.528695417E1,-1.843865662E1,-1.215472412E0,-1.193019104E0,1.851714680E1
1.529697917E1,-2.842648682E1,-3.822750549E0,-6.735992432E-1,2.869028251E1
1.530700517E1,-2.666180649E1,-3.628454590E0,2.644999695E0,2.703726375E1
1.531703117E1,-1.852233261E1,-3.673361206E-1,9.011859741E0,2.060158628E1
1.532705617E1,-1.536794220E1,2.877466278E0,1.689776093E1,2.302146355E1
1.533708217E1,-1.642100235E1,5.509443054E0,2.232667145E1,2.825745103E1
1.534710817E1,-2.058175003E1,6.332731018E0,2.481509674E1,3.285575966E1
1.535713317E1,-2.428744400E1,5.334007874E0,2.732013748E1,3.694213703E1
1.536715917E1,-2.707120514E1,4.092339935E0,2.691942078E1,3.839599730E1
1.537718517E1,-3.009252228E1,3.181484070E0,2.270777893E1,3.783285559E1
1.538721017E1,-3.320559860E1,2.623294830E0,1.681633026E1,3.731330082E1
1.539723617E1,-3.479050278E1,1.861079865E0,1.211685287E1,3.688713631E1
1.540726117E1,-3.478376678E1,1.268911285E0,9.850415955E0,3.617390305E1
1.541728717E1,-3.330828506E1,1.473685455E0,6.432723083E0,3.395575841E1
1.542731317E1,-3.075863708E1,2.481090546E0,2.140249329E0,3.093267258E1
1.543733817E1,-2.745949768E1,3.942202148E0,-1.589993591E0,2.778656240E1
1.544736417E1,-2.366503830E1,5.103636932E0,-6.796616364E0,2.514508186E1
1.545739017E1,-1.889296188E1,6.040688324E0,-1.863459915E1,2.721547739E1
1.546741517E1,-1.692799805E1,5.128485260E0,-1.741029510E1,2.481888101E1
1.547744117E1,-1.572944046E1,3.660637665E0,-4.625082092E0,1.679901633E1
1.548746717E1,-1.203647003E1,2.787054291E0,-2.497705994E0,1.260487278E1
1.549749217E1,-8.105943604E0,1.833836517E0,-2.004481659E0,8.549106667E0
1.550751817E1,-4.733905792E0,1.183139648E0,-1.288520508E0,5.046778039E0
1.551754317E1,-2.055525513E0,8.822653198E-1,-5.173242188E-1,2.295909749E0
1.552756917E1,-5.339396667E-1,6.984475708E-1,-2.320175171E-1,9.092594267E-1
1.553759517E1,3.278182983E-2,6.304888916E-1,-3.685336304E-1,7.310320975E-1
1.554762017E1,2.930905151E-1,4.248165894E-1,-2.583627319E-1,5.771676411E-1
1.555764617E1,2.667453003E-1,2.680924988E-1,5.149291992E-2,3.816780894E-1
1.556767217E1,2.621049500E-1,2.453398132E-1,1.194515991E-1,3.783639957E-1
1.557769717E1,3.845503235E-1,3.011737061E-1,-2.719844055E-1,5.590707195E-1
1.558772317E1,5.966592407E-1,5.366340637E-1,-1.564696198E0,1.758480184E0
1.559774917E1,1.136736145E0,5.761518860E-1,-2.686164093E0,2.973146077E0
1.560777417E1,3.064577179E0,1.447489929E-1,-1.996398468E0,3.660354136E0
1.561780017E1,5.598358154E0,-1.230590973E0,-5.239105225E-3,5.732014970E0
1.562782517E1,7.283853149E0,-2.133513336E0,2.655328217E0,8.040967839E0
1.563785117E1,8.292904816E0,-2.192939758E0,4.821623383E0,9.840188368E0
1.564787717E1,8.496331787E0,-2.347119141E0,7.621700592E0,1.165276542E1
1.565790217E1,8.233927460E0,-2.143243103E0,9.402996368E0,1.268098549E1
1.566792817E1,7.282505951E0,-1.778751068E0,8.810378723E0,1.156812956E1
1.567795417E1,5.910908203E0,-1.380878448E0,6.790628815E0,9.108144749E0
1.568797917E1,4.874014435E0,-9.583071899E-1,5.002597046E0,7.049847274E0
1.569800517E1,3.951632538E0,-7.451504517E-1,4.000880127E0,5.672538294E0
1.570803117E1,3.125500488E0,-5.828878784E-1,3.376079407E0,4.637501886E0
1.571805617E1,2.412982178E0,-4.189787292E-1,2.539618835E0,3.528128398E0
1.572808217E1,1.878743134E0,-3.240760803E-1,1.891167297E0,2.685370517E0
1.573810717E1,1.541793823E0,-2.733316040E-1,1.391955414E0,2.095084302E0
1.574813317E1,1.224753113E0,-3.363505554E-1,9.274713135E-1,1.572690345E0
1.575815917E1,8.852590942E-1,-3.424877930E-1,4.782554626E-1,1.062878093E0
1.576818417E1,6.924600220E-1,-3.707789612E-1,2.188449097E-1,8.153962316E-1
1.577821017E1,5.025050354E-1,-3.692820740E-1,9.610015869E-2,6.309641838E-1
1.578823617E1,4.602928162E-1,-3.406915283E-1,-1.649569702E-1,5.959454640E-1
1.579826117E1,5.628295898E-1,-2.700384521E-1,-7.485932922E-1,9.747255152E-1
1.580828717E1,8.237370300E-1,-1.963916016E-1,-1.200802917E0,1.469367212E0
1.581831317E1,1.135987701E0,-1.194515991E-1,-1.505569153E0,1.889834706E0
1.582833817E1,1.477128296E0,-2.005828857E-2,-1.762584686E0,2.299785884E0
1.583836417E1,1.973196716E0,9.565109253E-2,-2.092498627E0,2.877708275E0
1.584838917E1,2.190544739E0,1.297801208E-1,-2.175875244E0,3.090268954E0
1.585841517E1,2.467319183E0,1.904040527E-1,-2.403252411E0,3.449570960E0
1.586844117E1,2.650987244E0,2.282752991E-1,-2.718646545E0,3.804061253E0
1.587846617E1,2.814297638E0,1.594184875E-1,-3.014581146E0,4.127152158E0
1.588849217E1,2.796484680E0,1.062789917E-2,-3.131488037E0,4.198411229E0
1.589851817E1,2.471360779E0,-2.733316040E-1,-2.927312622E0,3.840767300E0
1.590854317E1,2.111509094E0,-5.143304443E-1,-2.376009064E0,3.220003965E0
1.591856917E1,1.857936401E0,-5.608836365E-1,-1.667083282E0,2.558453595E0
1.592859417E1,1.338516541E0,-6.001020813E-1,-1.058598633E0,1.808972112E0
1.593862017E1,5.313949585E-1,-6.382727051E-1,-5.020559692E-1,9.704807284E-1
1.594864617E1,-1.975891113E-2,-6.786886597E-1,-1.422042847E-2,6.791251224E-1
1.595867117E1,-4.463717651E-1,-7.905061340E-1,2.404000854E-1,9.391165539E-1
1.596869717E1,-8.819659424E-1,-9.029223633E-1,2.002835083E-1,1.277985212E0
1.597872317E1,-1.531315613E0,-1.103654938E0,2.790197754E-1,1.908096896E0
1.598874817E1,-1.969454498E0,-8.271798706E-1,1.696871338E0,2.728067062E0
1.599877417E1,-1.760339355E0,9.395960999E-1,3.280727692E0,3.839897090E0
1.600880100E1,-7.830965424E0,3.891906738E-3,1.358125763E0,7.947863877E0
1.601882600E1,-5.176685028E1,-4.516707458E0,-2.200873260E0,5.201010745E1
1.602885200E1,-1.360827644E2,5.830525360E0,1.226773911E1,1.367589530E2
1.603887800E1,-1.366931950E2,3.822241608E1,6.017217133E1,1.541644345E2
1.604890300E1,-7.391509277E1,2.851809631E1,7.535210449E1,1.093373788E2
1.605892900E1,-4.047313568E1,1.364801880E1,3.847389313E1,5.748550758E1
1.606895400E1,-1.959859451E1,5.672005005E0,1.283281403E1,2.410306336E1
1.607898000E1,-7.131470032E0,2.814447327E0,5.713319092E0,9.561432613E0
1.608900600E1,-1.023421783E0,1.321002960E0,1.356179810E0,2.152130257E0
1.609903100E1,2.086810455E0,3.212319946E-1,-9.460327148E-1,2.313643397E0
1.610905700E1,3.017275543E0,-2.251318359E-1,-9.930349731E-1,3.184455135E0
1.611908300E1,3.084186401E0,-3.604504395E-1,-8.430468750E-1,3.217585789E0
1.612910800E1,2.760260010E0,-3.677851868E-1,-8.216413879E-1,2.903342184E0
1.613913400E1,2.280058594E0,-3.562591553E-1,-5.616320801E-1,2.375082813E0
1.614916000E1,1.672172699E0,-4.447251892E-1,-4.083508301E-1,1.777833634E0
1.615918500E1,1.110390930E0,-4.167333984E-1,-3.387455750E-1,1.233443678E0
1.616921100E1,6.652166748E-1,-3.502716064E-1,-1.998344421E-1,7.779056672E-1
1.617923600E1,3.555107117E-1,-3.047662354E-1,2.499801636E-2,4.689298723E-1
1.618926200E1,1.335223389E-1,-2.371069336E-1,6.002517700E-2,2.786591732E-1
1.619928800E1,3.547622681E-2,-1.065783691E-1,-3.233276367E-2,1.168884898E-1
1.620931300E1,5.538482666E-2,2.888992310E-2,-1.939965820E-1,2.038057421E-1
1.621933900E1,2.177970886E-1,1.631607056E-1,-3.617976379E-1,4.527190282E-1
1.622936500E1,2.200424194E-1,2.050735474E-1,-5.771997070E-1,6.508712069E-1
1.623939000E1,2.833607483E-1,2.362088013E-1,-6.601272583E-1,7.562115502E-1
1.624941600E1,4.052073669E-1,2.239343262E-1,-6.732998657E-1,8.171121721E-1
1.625944200E1,4.905299377E-1,1.689985657E-1,-6.589297485E-1,8.386707033E-1
1.626946700E1,5.510041809E-1,8.502319336E-2,-6.938072205E-1,8.900578689E-1
1.627949300E1,6.050418091E-1,2.245330811E-2,-7.220983887E-1,9.423406097E-1
1.628951800E1,6.421646118E-1,-5.882766724E-2,-7.370672607E-1,9.793386697E-1
1.629954400E1,6.788383484E-1,-1.230441284E-1,-6.265969849E-1,9.319791533E-1
1.630957000E1,6.797364807E-1,-1.836680603E-1,-5.924679565E-1,9.202140616E-1
1.631959500E1,6.253994751E-1,-1.356179810E-1,-5.294490051E-1,8.305618515E-1
1.632962100E1,5.757028198E-1,9.460327148E-2,-4.107458496E-1,7.135094034E-1
1.633964700E1,4.004173279E-1,4.772076416E-1,-4.686753845E-1,7.795625605E-1
1.634967200E1,-4.984634399E-2,1.037791901E0,-8.288264465E-1,1.329078615E0
1.635969800E1,-7.714956665E-1,1.499282227E0,-1.441352692E0,2.218231354E0
1.636972400E1,-1.845078140E1,5.502557373E-1,-1.331032104E0,1.850691120E1
1.637974900E1,-4.490781372E1,-6.780899048E-1,4.983137512E0,4.518852950E1
1.638977500E1,-3.923745529E1,-2.697390747E-1,1.854673187E1,4.340082856E1
1.639980000E1,-3.982902512E1,2.298769684E0,3.446702545E1,5.272202033E1
1.640982600E1,-3.574551682E1,3.001558228E0,2.493424896E1,4.368601716E1
1.641985200E1,-2.586321716E1,2.272125092E0,9.707014160E0,2.771812906E1
1.642987700E1,-1.523756332E1,2.494412842E0,4.820725250E0,1.617543889E1
1.643990300E1,-8.756341095E0,2.806813202E0,2.046095123E0,9.420096336E0
1.644992900E1,-4.354145508E0,2.761756897E0,1.812730408E-1,5.159335633E0
1.645995400E1,-1.295106812E0,2.392923889E0,-8.747808838E-1,2.858081172E0
1.646998000E1,2.231858826E-1,1.891167297E0,-1.703008575E0,2.554714053E0
1.648000600E1,7.659571838E-1,1.552272034E0,-4.848567352E0,5.148285564E0
