"Time (s)","Acceleration x (m/s^2)","Acceleration y (m/s^2)","Acceleration z (m/s^2)","Absolute acceleration (m/s^2)"
-4.174958332E-3,-3.842210083E0,1.015188904E0,6.801256714E0,7.877199992E0
5.851041642E-3,-3.253035278E0,2.108215942E0,7.270979919E0,8.239779243E0
1.587604161E-2,-3.097957764E0,2.425406342E0,7.276668091E0,8.272232875E0
2.590204158E-2,-3.628304901E0,1.731449432E0,7.525151367E0,8.531729994E0
3.592804167E-2,-3.005749512E0,1.610500946E0,7.185507660E0,7.953600679E0
4.595304164E-2,-2.979703674E0,1.300495605E0,6.530619507E0,7.295129468E0
5.597904162E-2,-3.614234161E0,1.639839935E0,6.380182343E0,7.513886498E0
6.600504159E-2,-3.499871979E0,1.864971771E0,6.682254181E0,7.770440432E0
7.603004167E-2,-3.513643341E0,1.388063507E0,7.547604675E0,8.440304862E0
8.605604165E-2,-3.913461914E0,1.357227631E0,7.684120789E0,8.729430868E0
9.608204162E-2,-4.517904968E0,1.749262390E0,8.128845978E0,9.463060876E0
1.061070416E-1,-4.529281311E0,2.138003998E0,8.582552490E0,9.937084962E0
1.161330417E-1,-5.089416504E0,2.002086639E0,8.763975220E0,1.033042946E1
1.261590417E-1,-5.150788879E0,2.520308990E0,8.523275757E0,1.027272180E1
1.361840416E-1,-5.128335571E0,2.396217041E0,8.785530396E0,1.045118300E1
1.462107500E-1,-5.377417603E0,9.930349731E-1,8.995843048E0,1.052748454E1
1.562357499E-1,-5.648054810E0,8.454418945E-1,9.012159119E0,1.066931615E1
1.662617499E-1,-5.003495178E0,2.339634705E0,9.565558319E0,1.104575758E1
1.762877500E-1,-4.598138123E0,2.756966858E0,9.209897919E0,1.065673309E1
1.863127500E-1,-5.503006439E0,1.892065430E0,8.811725922E0,1.055980611E1
1.963387500E-1,-6.085894318E0,1.325343933E0,8.582253113E0,1.060423098E1
2.063647499E-1,-6.338419189E0,1.121018829E0,8.538693695E0,1.069305995E1
2.163897500E-1,-5.826932831E0,1.440005493E0,7.874375153E0,9.901138625E0
2.264157500E-1,-5.511239319E0,1.849404144E0,7.782615967E0,9.714070506E0
2.364417500E-1,-6.220464478E0,1.765129395E0,6.210135956E0,8.965246716E0
2.464667499E-1,-6.361620941E0,1.015937347E0,7.328909454E0,9.757830880E0
2.564927500E-1,-5.340294800E0,3.582051086E-1,7.778424683E0,9.441978076E0
2.665187500E-1,-4.813689880E0,4.725672913E-1,7.737709351E0,9.125079512E0
2.765437500E-1,-4.592449951E0,5.038522339E-1,8.656498718E0,9.812208400E0
2.865697499E-1,-5.145100708E0,2.100132751E-1,8.566835175E0,9.995340503E0
2.965957499E-1,-5.059029694E0,4.998106384E-1,7.528743896E0,9.084358908E0
3.066207500E-1,-4.614903259E0,8.042774963E-1,6.712191925E0,8.185213181E0
3.166467500E-1,-4.243525543E0,7.325765991E-1,5.836662598E0,7.253330806E0
3.266727499E-1,-3.702400818E0,7.259902954E-1,4.720733185E0,6.043190840E0
3.366977499E-1,-3.221900024E0,6.703060913E-1,4.322710876E0,5.432842658E0
3.467237500E-1,-3.763922882E0,2.589614868E-2,4.546345825E0,5.902291626E0
3.567487500E-1,-4.735402679E0,-4.414320374E-1,4.175267487E0,6.328645935E0
3.667747499E-1,-5.634283447E0,-4.626878357E-1,3.947291565E0,6.894950377E0
3.768007499E-1,-6.665638733E0,-4.652325439E-1,4.124073944E0,7.852080421E0
3.868257500E-1,-7.461084595E0,-6.843768311E-1,4.007466431E0,8.496819533E0
3.968517500E-1,-7.977810059E0,-9.574090576E-1,3.539988556E0,8.780296374E0
4.068777499E-1,-8.422684937E0,-1.146765289E0,2.905009003E0,8.983082404E0
4.169027499E-1,-9.053323517E0,-1.165177002E0,2.287243652E0,9.410195942E0
4.269287500E-1,-1.024095383E1,-1.113833771E0,1.586550751E0,1.042280693E1
4.369547500E-1,-1.102292770E1,-1.089584198E0,1.182540894E0,1.113959298E1
4.469797499E-1,-1.105196732E1,-9.081614685E-1,1.044677582E0,1.113831630E1
4.570057499E-1,-1.081051941E1,-8.259823608E-1,1.245859222E0,1.091337445E1
4.670317500E-1,-1.072384964E1,-8.807684326E-1,1.524579620E0,1.086743057E1
4.770567500E-1,-1.072878937E1,-1.005309448E0,1.808838501E0,1.092654864E1
4.870827500E-1,-1.049976562E1,-1.199306030E0,2.133812714E0,1.078130650E1
4.971087499E-1,-1.034453842E1,-1.407523041E0,2.302212524E0,1.069068654E1
5.071337500E-1,-1.038854691E1,-1.383572845E0,2.418520660E0,1.075571582E1
5.171597500E-1,-1.019589752E1,-1.218166809E0,2.690205688E0,1.061496412E1
5.271847500E-1,-9.967622223E0,-1.222208405E0,2.841990051E0,1.043667541E1
5.372107499E-1,-9.767338715E0,-1.414558411E0,2.815195770E0,1.026290448E1
5.472367500E-1,-9.587712250E0,-1.685944061E0,2.813998260E0,1.013337159E1
5.572617500E-1,-9.580826569E0,-1.945354614E0,2.785407715E0,1.016538924E1
5.672877500E-1,-9.601333923E0,-2.020797729E0,2.867437134E0,1.022210508E1
5.773137499E-1,-9.586814117E0,-1.864073639E0,2.965483246E0,1.020665794E1
5.873387500E-1,-9.390572205E0,-1.803898773E0,2.926564178E0,1.000008375E1
5.973647500E-1,-9.272617493E0,-1.701062622E0,2.727627869E0,9.814020736E0
6.073907500E-1,-9.374705200E0,-1.552272034E0,2.647245026E0,9.864205608E0
6.174157499E-1,-9.615404663E0,-1.513502655E0,3.000061340E0,1.018563033E1
6.274417499E-1,-9.464069366E0,-1.367406464E0,3.061733093E0,1.004054874E1
6.374677500E-1,-9.335037689E0,-1.248852997E0,2.869682465E0,9.845691439E0
6.474927500E-1,-9.359586639E0,-1.277742920E0,2.968626709E0,9.901880305E0
6.575187499E-1,-9.358089752E0,-1.208437042E0,3.215164032E0,9.968522641E0
6.675447499E-1,-9.124874725E0,-1.060694275E0,3.186872864E0,9.723403198E0
6.775697500E-1,-8.860225067E0,-8.554710388E-1,3.186872864E0,9.454711925E0
6.875957500E-1,-8.733139343E0,-7.268884277E-1,3.334016876E0,9.376127031E0
6.976207499E-1,-8.929530945E0,-6.460565186E-1,3.360960846E0,9.562947753E0
7.076467499E-1,-9.408983917E0,-8.143066406E-1,3.420536957E0,1.004450829E1
7.176727500E-1,-1.012090347E1,-1.203796692E0,3.309767303E0,1.071617344E1
7.276977500E-1,-1.144160706E1,-1.836979980E0,3.188070374E0,1.201867964E1
7.377237499E-1,-1.261381943E1,-2.596799927E0,3.216660919E0,1.327398651E1
7.477497499E-1,-1.385159546E1,-3.367098083E0,3.016527100E0,1.457063767E1
7.577747500E-1,-1.540102341E1,-4.358187103E0,2.942131805E0,1.627395024E1
7.678007500E-1,-1.655602158E1,-5.418132935E0,3.186573486E0,1.770910121E1
7.778267500E-1,-1.750774246E1,-6.325396271E0,3.424728241E0,1.892776922E1
7.878517499E-1,-1.821083038E1,-6.950346680E0,3.693718872E0,1.983898237E1
7.978777500E-1,-1.859987137E1,-7.144193573E0,4.043990479E0,2.033097577E1
8.079037500E-1,-1.974304413E1,-7.123686218E0,4.424349518E0,2.145016470E1
8.179287500E-1,-2.071063202E1,-6.967710571E0,4.933740234E0,2.240136295E1
8.279547499E-1,-2.105087448E1,-6.815177765E0,5.258564758E0,2.274287730E1
8.379807500E-1,-2.146177002E1,-7.008575592E0,5.610632629E0,2.326385400E1
8.480057500E-1,-2.171504333E1,-7.505691833E0,5.800886993E0,2.369659906E1
8.580317500E-1,-2.179108521E1,-8.220754852E0,6.067931671E0,2.406765463E1
8.680577499E-1,-2.162268539E1,-8.897946625E0,6.465654602E0,2.425940369E1
8.780827500E-1,-2.101958954E1,-9.059610443E0,6.896309052E0,2.390520371E1
8.881087500E-1,-2.005304947E1,-8.687633972E0,7.094945984E0,2.297690222E1
8.981347500E-1,-1.871243729E1,-7.752977600E0,6.959777069E0,2.141734035E1
9.081597499E-1,-1.709624817E1,-6.292165375E0,6.715485077E0,1.941573554E1
9.181857500E-1,-1.533905228E1,-4.721032562E0,6.348747711E0,1.725923726E1
9.282107500E-1,-1.343905334E1,-3.006497955E0,5.557493134E0,1.485035066E1
9.382367500E-1,-1.157138718E1,-1.402882690E0,4.504732361E0,1.249630724E1
9.482627499E-1,-9.815239105E0,-1.323248291E-1,3.362008667E0,1.037591108E1
9.582877500E-1,-8.373137970E0,6.939569092E-1,2.427202606E0,8.745417551E0
9.683137500E-1,-7.172634430E0,1.153501282E0,1.946701813E0,7.521096850E0
9.783397500E-1,-6.174659729E0,1.419797516E0,1.684297485E0,6.555845161E0
9.883647499E-1,-5.247487793E0,1.629661102E0,1.407822418E0,5.672203047E0
9.983907499E-1,-4.386178894E0,1.795516205E0,1.094224548E0,4.864131073E0
1.008416750E0,-3.666625214E0,1.700912933E0,8.671467590E-1,4.133907203E0
1.018441750E0,-2.892884216E0,1.623972931E0,2.610571289E-1,3.327794764E0
1.028467750E0,-1.830992432E0,1.759590912E0,-3.760180664E-1,2.567115706E0
1.038493750E0,-7.147636414E-1,1.934127960E0,-8.222401428E-1,2.219868663E0
1.048518750E0,9.789642334E-2,1.892813873E0,-9.394464111E-1,2.115393020E0
1.058544750E0,4.918771362E-1,1.639390869E0,-8.174501038E-1,1.896778904E0
1.068569750E0,6.779402161E-1,1.392254791E0,-7.336244202E-1,1.713528853E0
1.078595750E0,7.453001404E-1,1.228495331E0,-5.031037903E-1,1.522427831E0
1.088621750E0,5.821394348E-1,9.795629883E-1,-2.835104370E-1,1.174226612E0
1.098646750E0,-1.077758789E-2,5.599855042E-1,-1.613644409E-1,5.828708296E-1
1.108672750E0,-7.059320068E-1,2.523751831E-1,-7.035369873E-2,7.529826520E-1
1.118698750E0,-1.111139374E0,4.441264343E-1,9.400451660E-2,1.200298232E0
1.128723750E0,-1.382974091E0,6.327342224E-1,2.766247559E-1,1.545797913E0
1.138749750E0,-1.363065491E0,5.891748047E-1,4.116439819E-1,1.540949464E0
1.148775167E0,-9.142987061E-1,4.689747620E-1,2.908451843E-1,1.067928075E0
1.158800167E0,-1.844165039E-1,2.333647156E-1,2.993774414E-4,2.974367614E-1
1.168826167E0,4.635859680E-1,-9.205856323E-2,-3.577560425E-1,5.927698666E-1
1.178852167E0,9.434880066E-1,-3.773652649E-1,-6.571334839E-1,1.210123373E0
1.188877167E0,1.253942413E0,-6.044430542E-1,-8.512797546E-1,1.631686306E0
1.198903167E0,1.290616150E0,-8.235873413E-1,-7.538323975E-1,1.706531406E0
1.208929167E0,1.387913818E0,-9.244775391E-1,-6.357279968E-1,1.784688649E0
1.218954167E0,1.319955139E0,-1.056353302E0,-3.200344849E-1,1.720635330E0
1.228980167E0,9.586065674E-1,-1.065035248E0,2.728825378E-1,1.458660862E0
1.239005167E0,6.337820435E-1,-9.699829102E-1,8.385562134E-1,1.430287750E0
1.249031167E0,2.764750671E-1,-1.033151550E0,1.255439301E0,1.649232678E0
1.259057167E0,-2.507286072E-1,-1.259780273E0,1.505868530E0,1.979280476E0
1.269082167E0,-1.111139374E0,-1.464704132E0,1.550475769E0,2.404987321E0
1.279108167E0,-1.940564575E0,-1.733694763E0,1.700613556E0,3.108629098E0
1.289134167E0,-2.849923553E0,-2.313139801E0,1.936373291E0,4.149966448E0
1.299159167E0,-4.172273712E0,-2.831511841E0,2.048490143E0,5.442576513E0
1.309185167E0,-5.973328400E0,-3.314707031E0,2.276166687E0,7.200615922E0
1.319211167E0,-8.280031586E0,-4.026327209E0,2.616109772E0,9.571534057E0
1.329236167E0,-1.094583801E1,-4.958438873E0,2.999312897E0,1.238520746E1
1.339262167E0,-1.349982697E1,-5.944887543E0,3.534749451E0,1.516843663E1
1.349288167E0,-1.622012009E1,-7.192992096E0,3.501069489E0,1.808559975E1
1.359313167E0,-1.878039597E1,-8.828491058E0,2.863694916E0,2.094865808E1
1.369339167E0,-1.966430786E1,-9.646090851E0,2.317630463E0,2.202506489E1
1.379365167E0,-1.847338440E1,-8.775501251E0,1.728605347E0,2.052470292E1
1.389390167E0,-1.727258148E1,-7.360643463E0,1.531016235E0,1.883786490E1
1.399416167E0,-1.735101837E1,-6.245163116E0,2.240091705E0,1.857627282E1
1.409441167E0,-1.786954010E1,-5.323080597E0,3.335663452E0,1.894154960E1
1.419467167E0,-1.835483093E1,-4.601730652E0,4.124223633E0,1.936711037E1
1.429493167E0,-1.949246521E1,-4.374652863E0,4.917573853E0,2.057368028E1
1.439518167E0,-2.085792572E1,-4.743485870E0,5.682183838E0,2.213235046E1
1.449544167E0,-2.175246552E1,-5.513035583E0,6.288572845E0,2.330470909E1
1.459570167E0,-2.182192108E1,-6.339916077E0,6.723268890E0,2.369795603E1
1.469595167E0,-2.128154480E1,-7.045997772E0,6.817872162E0,2.343146633E1
1.479621167E0,-2.071512268E1,-7.223079529E0,6.699767761E0,2.293852815E1
1.489647167E0,-2.108006378E1,-7.083569641E0,6.437662811E0,2.315144813E1
1.499672167E0,-2.191876968E1,-6.898255005E0,5.745801544E0,2.368612720E1
1.509698167E0,-2.228460892E1,-6.688840485E0,4.769082642E0,2.375054801E1
1.519724167E0,-2.246483414E1,-7.077881470E0,3.573668518E0,2.382302008E1
1.529749167E0,-2.156310928E1,-7.781867523E0,1.956431580E0,2.300766761E1
1.539775167E0,-1.988405090E1,-8.319998474E0,1.558259583E-1,2.155509538E1
1.549801167E0,-1.872111923E1,-8.888665924E0,-5.017565918E-1,2.073018203E1
1.559826167E0,-1.765653305E1,-9.189540253E0,1.300794983E-1,1.990521866E1
1.569852167E0,-1.682067123E1,-9.159452820E0,1.533411255E0,1.921410697E1
1.579878167E0,-1.620784561E1,-9.227411499E0,2.934797058E0,1.887994746E1
1.589903167E0,-1.633343445E1,-8.569230194E0,4.197870483E0,1.891652462E1
1.599929167E0,-1.628987503E1,-7.718698883E0,5.301824799E0,1.878956325E1
1.609954167E0,-1.538081543E1,-6.862479401E0,5.758076019E0,1.779939736E1
1.619980167E0,-1.366672989E1,-5.570815430E0,5.807323608E0,1.585996526E1
1.630006167E0,-1.231968109E1,-4.123475189E0,5.702691193E0,1.418796239E1
1.640031167E0,-1.160087585E1,-3.056344299E0,5.354964294E0,1.313762550E1
1.650057167E0,-1.069585785E1,-2.088457031E0,4.540358276E0,1.180584098E1
1.660083167E0,-9.134604492E0,-1.031055908E0,3.449426880E0,9.818483657E0
1.670108167E0,-7.062912598E0,1.019380188E-1,2.417622528E0,7.465924217E0
1.680134167E0,-5.036875763E0,1.050814819E0,1.518592072E0,5.364741477E0
1.690160167E0,-2.938539276E0,1.624721375E0,5.944139099E-1,3.409994211E0
1.700185167E0,-7.680528259E-1,1.970053253E0,-5.912704468E-1,2.195590059E0
1.710211167E0,1.124461670E0,2.326162720E0,-1.715133362E0,3.101149705E0
1.720237167E0,2.210603027E0,2.590363312E0,-2.177372131E0,4.041991740E0
1.730262167E0,2.345023499E0,2.423610077E0,-2.254910889E0,4.056802205E0
1.740288167E0,1.930685120E0,2.017654266E0,-2.315983887E0,3.627982240E0
1.750314167E0,1.299597473E0,1.532812500E0,-2.203268280E0,2.982089681E0
1.760339167E0,7.418572998E-1,1.190175018E0,-1.995799713E0,2.439279673E0
1.770365167E0,2.154020691E-1,1.002465363E0,-1.736838226E0,2.016913949E0
1.780390167E0,-1.781295776E-1,8.704399109E-1,-1.238075409E0,1.523885331E0
1.790416167E0,-3.061134338E-1,8.005352783E-1,-8.647517395E-1,1.217521144E0
1.800442167E0,-3.390449524E-1,7.045848083E-1,-5.340893555E-1,9.469121773E-1
1.810467167E0,-4.438270569E-1,5.303471375E-1,-8.128097534E-2,6.963168385E-1
1.820493167E0,-5.266049194E-1,4.411326599E-1,2.062710571E-1,7.172576342E-1
1.830519167E0,-1.975891113E-1,5.210664368E-1,1.573228455E-1,5.790528181E-1
1.840544167E0,8.158035278E-2,3.854484558E-1,3.550616455E-1,5.303721695E-1
1.850570167E0,1.288819885E-1,4.146377563E-2,6.741979980E-1,6.876574381E-1
1.860596167E0,3.487747192E-2,-6.122268677E-2,5.996530151E-1,6.037784312E-1
1.870621167E0,-7.080276489E-2,-5.044509888E-2,8.530760193E-1,8.574942765E-1
1.880647167E0,-1.631607056E-1,-8.622070312E-2,1.203946381E0,1.218007518E0
1.890673167E0,-3.188369751E-1,-5.104385376E-2,1.369352417E0,1.406907436E0
1.900698167E0,-6.402186584E-1,-1.796264648E-3,1.694027252E0,1.810969765E0
1.910724167E0,-9.544152832E-1,1.076261902E-1,2.032922516E0,2.248391844E0
1.920749167E0,-1.330882416E0,2.510279846E-1,2.188898163E0,2.574012086E0
1.930775167E0,-1.715732117E0,3.029699707E-1,2.211351471E0,2.815244719E0
1.940801167E0,-1.999092865E0,3.273692322E-1,2.173031158E0,2.970792371E0
1.950826167E0,-2.209405518E0,3.312611389E-1,1.880988464E0,2.920500691E0
1.960852167E0,-2.519710236E0,1.844165039E-1,1.623374176E0,3.003047258E0
1.970878167E0,-2.858455811E0,2.290237427E-2,1.147663422E0,3.080328792E0
1.980903167E0,-3.489244080E0,-1.167572021E-1,7.068301392E-1,3.562031069E0
1.990929167E0,-4.210893402E0,-3.722758484E-1,7.466473389E-1,4.292749096E0
2.000955167E0,-4.744833069E0,-7.349716187E-1,7.301815796E-1,4.856623237E0
2.010980167E0,-5.462291107E0,-1.127904510E0,7.795788574E-1,5.631743595E0
2.021006167E0,-6.630012817E0,-1.628912659E0,9.698332214E-1,6.895723522E0
2.031032167E0,-8.132887573E0,-2.092648315E0,1.329984283E0,8.502464081E0
2.041057167E0,-9.923763428E0,-2.382595367E0,2.025737457E0,1.040487643E1
2.051083167E0,-1.169967041E1,-2.637215881E0,2.988684998E0,1.235999326E1
2.061109167E0,-1.369846390E1,-3.187471619E0,3.759282532E0,1.455816244E1
2.071134167E0,-1.537542664E1,-3.859573975E0,3.869453430E0,1.631786522E1
2.081160167E0,-1.682336563E1,-4.512366486E0,3.259172516E0,1.772030722E1
2.091185167E0,-1.809871353E1,-5.208568726E0,2.733914795E0,1.903068338E1
2.101211167E0,-1.869671997E1,-5.941444702E0,2.282303925E0,1.975036744E1
2.111237167E0,-1.871797577E1,-6.102659454E0,1.681303711E0,1.975934846E1
2.121262167E0,-1.839404938E1,-5.744005280E0,1.341809692E0,1.931670527E1
2.131288167E0,-1.807700867E1,-5.193150787E0,1.528621216E0,1.887018125E1
2.141314167E0,-1.746747620E1,-4.266876984E0,1.772464142E0,1.806822053E1
2.151339417E0,-1.650003799E1,-3.589685211E0,1.959275665E0,1.699928983E1
2.161365417E0,-1.616099304E1,-3.554957428E0,2.163451080E0,1.668819760E1
2.171391417E0,-1.628688126E1,-4.179458771E0,2.159110107E0,1.695264384E1
2.181416417E0,-1.692680054E1,-5.429808655E0,2.602787476E0,1.796590941E1
2.191442417E0,-1.791699142E1,-6.796017609E0,3.085084534E0,1.940933238E1
2.201468417E0,-1.859822479E1,-7.758665771E0,3.231330414E0,2.040912434E1
2.211493417E0,-1.908216843E1,-7.763306122E0,3.103645935E0,2.083340327E1
2.221519417E0,-1.908905411E1,-6.957831116E0,2.571801910E0,2.047968666E1
2.231545417E0,-1.841919708E1,-5.827681274E0,1.750609589E0,1.939828147E1
2.241570417E0,-1.768048325E1,-5.135670319E0,1.012644196E0,1.843909015E1
2.251596417E0,-1.723605743E1,-5.090763702E0,3.724255371E-1,1.797599098E1
2.261622417E0,-1.698981949E1,-5.567671967E0,1.730401611E-1,1.787967786E1
2.271647417E0,-1.699251389E1,-6.597680054E0,6.854246521E-1,1.824129154E1
2.281673417E0,-1.685494995E1,-7.522906036E0,1.707050171E0,1.853638242E1
2.291698417E0,-1.657443329E1,-8.085136871E0,2.865640869E0,1.866261436E1
2.301724417E0,-1.651126465E1,-8.327931976E0,3.808979187E0,1.888080066E1
2.311750417E0,-1.636292313E1,-8.068970490E0,4.285288696E0,1.874079073E1
2.321775417E0,-1.645992142E1,-7.666158142E0,4.310586090E0,1.866226530E1
2.331801417E0,-1.688144485E1,-7.621550903E0,3.999981995E0,1.894917081E1
2.341827417E0,-1.725881012E1,-7.706574097E0,3.429817657E0,1.920993129E1
2.351852417E0,-1.734218674E1,-7.922125854E0,2.873724060E0,1.928133317E1
2.361878417E0,-1.711181580E1,-8.304580536E0,2.320474548E0,1.916154743E1
2.371904417E0,-1.681079178E1,-8.789422302E0,2.118544464E0,1.908782060E1
2.381929417E0,-1.638402924E1,-9.188193054E0,2.408341827E0,1.893830552E1
2.391955417E0,-1.581925369E1,-9.419162750E0,2.581980743E0,1.859128933E1
2.401981417E0,-1.476739105E1,-8.641679535E0,2.624192963E0,1.731013727E1
2.412006417E0,-1.358185638E1,-6.969057770E0,2.495310974E0,1.546806924E1
2.422032417E0,-1.228959366E1,-4.970413971E0,1.878892822E0,1.338915104E1
2.432058417E0,-1.098475708E1,-2.701881409E0,1.125958557E0,1.136806201E1
2.442083417E0,-1.014904495E1,-4.501139832E-1,1.645079041E-1,1.016035329E1
2.452109417E0,-8.455766144E0,1.343156891E0,-5.974076843E-1,8.582595613E0
2.462134417E0,-5.561684418E0,1.982776794E0,-1.106349335E0,6.007307736E0
2.472160417E0,-2.616109772E0,1.513802032E0,-1.453926544E0,3.354031802E0
2.482186417E0,1.055305481E-1,9.460327148E-1,-1.050515442E0,1.417637925E0
2.492211417E0,2.186503143E0,3.739224243E-1,-1.944456482E-1,2.226751689E0
2.502237417E0,3.545377350E0,-1.344204712E-1,3.611988831E-1,3.566263317E0
2.512263417E0,4.137994995E0,-1.857637024E-1,5.159770203E-1,4.174175729E0
2.522288417E0,3.547023926E0,-6.286926270E-3,2.776725769E-1,3.557881436E0
2.532314417E0,2.094594269E0,7.768844604E-2,-1.686991882E-1,2.102812417E0
2.542340417E0,4.230203247E-1,5.508544922E-2,-7.758366394E-1,8.853830204E-1
2.552365417E0,-9.678872681E-1,-4.550537109E-2,-1.089584198E0,1.458105012E0
2.562391417E0,-1.441502380E0,-3.150947571E-1,-8.114625549E-1,1.683949315E0
2.572417417E0,-1.024020538E0,-4.361929321E-1,-3.797602844E-1,1.176052809E0
2.582442417E0,-4.445755005E-1,-3.814068604E-1,1.338217163E-1,6.008550745E-1
2.592468417E0,-1.185534668E-1,-2.600093079E-1,4.860392761E-1,5.638208426E-1
2.602494417E0,-2.302212524E-1,-1.219963074E-1,8.208929443E-1,8.612491801E-1
2.612519417E0,-5.602848816E-1,1.683998108E-1,1.025068359E0,1.180272336E0
2.622545417E0,-1.092877350E0,4.779560852E-1,1.193767548E0,1.687573370E0
2.632570417E0,-1.490001526E0,6.435118103E-1,1.242715759E0,2.044151280E0
2.642596417E0,-1.324296112E0,7.002438354E-1,1.038091278E0,1.822562790E0
2.652622417E0,-8.024812317E-1,7.194039917E-1,7.652087402E-1,1.321764974E0
2.662647417E0,-1.770817566E-1,6.351292419E-1,4.197271729E-1,7.816124373E-1
2.672673417E0,2.878514099E-1,3.803590393E-1,4.450245667E-1,6.523636240E-1
2.682699417E0,5.818400574E-1,3.318598938E-1,6.215075684E-1,9.137507860E-1
2.692724417E0,6.036946106E-1,4.114942932E-1,7.355703735E-1,1.036744188E0
2.702750417E0,3.591032410E-1,4.508624268E-1,7.310797119E-1,9.309724006E-1
2.712776417E0,1.212478638E-2,5.096900940E-1,4.893324280E-1,7.066662773E-1
2.722801417E0,-5.900729370E-1,5.879772949E-1,3.457809448E-2,8.337259831E-1
2.732827417E0,-1.453327789E0,4.736151123E-1,-1.588197327E-1,1.536781261E0
2.742853417E0,-2.156415710E0,4.188290405E-1,-2.833607483E-1,2.214913045E0
2.752878417E0,-2.690505066E0,4.599934387E-1,-5.879772949E-1,2.792154862E0
2.762904417E0,-3.029849396E0,4.213737488E-1,-8.256829834E-1,3.168484746E0
2.772930417E0,-3.120560760E0,2.595602417E-1,-1.133742371E0,3.330261663E0
2.782955417E0,-3.304378510E0,-1.068777466E-1,-1.234632568E0,3.529115720E0
2.792981417E0,-3.933370514E0,-8.951385498E-1,-1.160536652E0,4.197561428E0
2.803006417E0,-4.943919067E0,-1.899699554E0,-9.683363342E-1,5.384131258E0
2.813032417E0,-6.483018494E0,-2.997217255E0,-5.789959717E-1,7.165757210E0
2.823058417E0,-8.574469299E0,-4.012705536E0,-3.016227722E-1,9.471763604E0
2.833083417E0,-1.071651489E1,-4.832999725E0,-4.939727783E-2,1.175602050E1
2.843109417E0,-1.285062698E1,-5.581593018E0,3.905378723E-1,1.401589506E1
2.853135417E0,-1.421219559E1,-5.740562439E0,8.776249695E-1,1.535287550E1
2.863160417E0,-1.561597641E1,-5.536536713E0,9.469308472E-1,1.659544022E1
2.873186417E0,-1.804946594E1,-6.049220581E0,6.385720825E-1,1.904689121E1
2.883212417E0,-2.021755737E1,-6.449188843E0,3.158432007E-2,2.122127848E1
2.893237417E0,-2.099788467E1,-5.776038666E0,-6.610253906E-1,2.178785758E1
2.903263417E0,-2.064581680E1,-4.816384277E0,-2.733316040E-1,2.120193433E1
2.913289417E0,-1.977867004E1,-4.423301697E0,9.621990967E-1,2.029007673E1
2.923314417E0,-1.886976013E1,-4.587360535E0,2.318378906E0,1.955726476E1
2.933340417E0,-1.852323074E1,-5.253774719E0,3.734284515E0,1.961267720E1
2.943366417E0,-1.896376465E1,-6.335126038E0,4.842430115E0,2.057200333E1
2.953391417E0,-1.981968475E1,-7.194788361E0,5.459596710E0,2.178054360E1
2.963417417E0,-2.076437027E1,-7.770790558E0,5.465284882E0,2.283448264E1
2.973443417E0,-2.128738266E1,-7.886350250E0,4.424948273E0,2.312849645E1
2.983468417E0,-2.067006638E1,-7.267088013E0,2.783611450E0,2.208643712E1
2.993494417E0,-1.933888458E1,-6.233786774E0,1.156045990E0,2.035163376E1
3.003519417E0,-1.795845520E1,-5.199737091E0,-3.043171692E-1,1.869855577E1
3.013545417E0,-1.646246613E1,-4.346810760E0,-1.189576263E0,1.706817642E1
3.023571417E0,-1.546853302E1,-4.081412659E0,-1.063388672E0,1.603322296E1
3.033596417E0,-1.524385025E1,-4.743036804E0,-3.023712158E-1,1.596755451E1
3.043622417E0,-1.554322769E1,-5.901777191E0,1.005309448E0,1.665633658E1
3.053648417E0,-1.605546249E1,-6.530020752E0,2.174827423E0,1.746851228E1
3.063673417E0,-1.672457108E1,-6.575675812E0,2.962489471E0,1.821337788E1
3.073699417E0,-1.758602966E1,-6.372248840E0,3.296744385E0,1.899322295E1
3.083725417E0,-1.813239349E1,-5.748046875E0,2.847827911E0,1.923366477E1
3.093750417E0,-1.789169403E1,-4.976251831E0,1.986069946E0,1.867673075E1
3.103776417E0,-1.741029510E1,-4.528682556E0,9.765692139E-1,1.801613246E1
3.113802417E0,-1.703412735E1,-4.554129639E0,2.399510193E-1,1.763403436E1
3.123827417E0,-1.689267151E1,-5.036426697E0,-1.179547119E-1,1.762787162E1
3.133853417E0,-1.691722046E1,-5.846542053E0,-7.604187012E-2,1.789916714E1
3.143879500E0,-1.706211914E1,-6.712640991E0,5.613327026E-1,1.834367883E1
3.153904500E0,-1.706660980E1,-7.549251251E0,1.577569427E0,1.872829650E1
3.163930500E0,-1.669553146E1,-8.248447266E0,2.546504517E0,1.879527436E1
3.173956500E0,-1.699969894E1,-8.477471008E0,3.056194611E0,1.924051986E1
3.183981500E0,-1.765189270E1,-8.411308594E0,3.235222321E0,1.981933631E1
3.194007500E0,-1.759336441E1,-8.120912476E0,3.334615631E0,1.966202818E1
3.204032500E0,-1.705298813E1,-7.416327667E0,3.203338623E0,1.886975619E1
3.214058500E0,-1.589095459E1,-6.304589539E0,3.052751770E0,1.736633469E1
3.224084500E0,-1.480017288E1,-5.054089966E0,2.550546112E0,1.584595305E1
3.234109500E0,-1.334430038E1,-3.573668518E0,2.112856293E0,1.397517875E1
3.244135500E0,-1.078477295E1,-2.090702362E0,1.696721649E0,1.111580983E1
3.254161500E0,-7.964487762E0,-8.482859802E-1,1.071920929E0,8.080944802E0
3.264186500E0,-5.886059875E0,-4.918771362E-1,2.219883728E-1,5.910746384E0
3.274212500E0,-4.052522736E0,-9.101074219E-2,-2.534230042E-1,4.061458691E0
3.284238500E0,-2.182162170E0,5.069956970E-1,-3.674858093E-1,2.270225142E0
3.294263500E0,-6.104306030E-1,4.481680298E-1,-9.457333374E-1,1.211565784E0
3.304289500E0,8.535250854E-1,5.867797852E-2,-2.129322052E0,2.294768088E0
3.314315500E0,1.959425354E0,-5.469625854E-1,-3.218157806E0,3.807237247E0
3.324340500E0,2.879561920E0,-1.105750580E0,-4.533622284E0,5.483456229E0
3.334366500E0,3.725452881E0,-1.308429108E0,-5.463488617E0,6.740971278E0
3.344392500E0,4.083807678E0,-1.398691406E0,-5.698050842E0,7.148538746E0
3.354417500E0,4.091741180E0,-1.339714050E0,-5.546715546E0,7.021626091E0
3.364443500E0,3.807631989E0,-1.032552795E0,-4.825515289E0,6.232962734E0
3.374468500E0,3.158282318E0,-7.429051208E-1,-3.686683502E0,4.911037616E0
3.384494500E0,2.427352295E0,-5.084925842E-1,-2.690056000E0,3.658825652E0
3.394520500E0,1.573378143E0,-5.040019226E-1,-1.854044495E0,2.483348084E0
3.404545500E0,7.833210754E-1,-7.206015015E-1,-1.097667389E0,1.528964397E0
3.414571500E0,3.381468201E-1,-8.873547363E-1,-3.987707520E-1,1.029931946E0
3.424597500E0,-1.951940918E-1,-1.006956024E0,4.935237122E-1,1.138256044E0
3.434622500E0,-5.038522339E-1,-9.577084351E-1,1.289867706E0,1.683695703E0
3.444648500E0,-6.960525513E-1,-8.792715454E-1,1.833387451E0,2.149166618E0
3.454674500E0,-9.607022095E-1,-8.954379272E-1,2.249671783E0,2.604953157E0
3.464699500E0,-9.059161377E-1,-8.180488586E-1,2.343077545E0,2.641950107E0
3.474725500E0,-7.206015015E-1,-7.577243042E-1,2.337838440E0,2.561035185E0
3.484751500E0,-7.415579224E-1,-6.869215393E-1,2.250869293E0,2.467424148E0
3.494776500E0,-9.325607300E-1,-4.778063965E-1,2.093845825E0,2.341401035E0
3.504802500E0,-1.255738678E0,-2.716850281E-1,2.013912048E0,2.388835306E0
3.514828500E0,-1.543141022E0,-8.532257080E-2,1.691781921E0,2.291438462E0
3.524853500E0,-1.838327179E0,2.604583740E-2,1.269210663E0,2.234059290E0
3.534879500E0,-2.175875244E0,1.513352966E-1,1.106948090E0,2.445949616E0
3.544904500E0,-2.424358521E0,2.734812927E-1,1.006656647E0,2.639254413E0
3.554930500E0,-2.749482422E0,3.950285339E-1,1.142723694E0,3.003584287E0
3.564956500E0,-3.079695740E0,4.664300537E-1,1.236279144E0,3.351189187E0
3.574981500E0,-3.435206451E0,5.276527405E-1,1.258133698E0,3.696209028E0
3.585007500E0,-3.831582184E0,5.331912231E-1,1.443148956E0,4.128921629E0
3.595033500E0,-4.419858856E0,4.406835938E-1,1.564546509E0,4.709263224E0
3.605058500E0,-5.104984131E0,2.447410583E-1,1.632654877E0,5.365288726E0
3.615084500E0,-5.913303223E0,-2.037263489E-1,1.855840759E0,6.201032523E0
3.625110500E0,-7.316185913E0,-9.547146606E-1,1.934726715E0,7.627661756E0
3.635135500E0,-9.304201813E0,-1.811083832E0,1.776655426E0,9.643894469E0
3.645161500E0,-1.163874710E1,-2.795436859E0,1.712289276E0,1.209160187E1
3.655187500E0,-1.435589676E1,-3.432212677E0,1.159638519E0,1.480596559E1
3.665212500E0,-1.647938095E1,-3.773952026E0,2.604583740E-2,1.690601635E1
3.675238500E0,-1.725282257E1,-3.918701019E0,-1.466500397E0,1.775293575E1
3.685264500E0,-1.768362671E1,-3.437302094E0,-2.153421936E0,1.814284777E1
3.695289500E0,-1.856559265E1,-2.990481262E0,-2.003882904E0,1.891136577E1
3.705315500E0,-2.002595581E1,-3.090323639E0,-1.864223328E0,2.034857083E1
3.715341500E0,-2.097168915E1,-3.385210419E0,-1.891766052E0,2.132721675E1
3.725366500E0,-2.035961197E1,-3.199446716E0,-1.736089783E0,2.068246278E1
3.735392500E0,-1.899669617E1,-2.789000244E0,-1.185834045E0,1.923692257E1
3.745417500E0,-1.730536331E1,-2.423610077E0,-4.260140991E-1,1.747944430E1
3.755443500E0,-1.592283829E1,-1.946851501E0,5.728587341E-1,1.605164094E1
3.765469500E0,-1.503293884E1,-1.274449768E0,1.580862579E0,1.516946271E1
3.775494500E0,-1.459090805E1,-8.653504944E-1,2.073039093E0,1.476282223E1
3.785520500E0,-1.483445160E1,-9.431886292E-1,2.212399292E0,1.502814924E1
3.795546500E0,-1.533800446E1,-1.475481720E0,1.910177765E0,1.552675775E1
3.805571500E0,-1.577958618E1,-2.351609802E0,1.235830078E0,1.600164631E1
3.815597500E0,-1.611429016E1,-3.239114227E0,1.066532135E0,1.647117783E1
3.825623500E0,-1.619512207E1,-3.859873352E0,1.021625519E0,1.668005755E1
3.835648500E0,-1.644525192E1,-4.179309082E0,8.979826355E-1,1.699174235E1
3.845674500E0,-1.660511948E1,-3.952081604E0,6.911128235E-1,1.708293238E1
3.855700500E0,-1.679387695E1,-3.465742950E0,3.168910217E-1,1.715068795E1
3.865725500E0,-1.770173904E1,-3.071163483E0,-2.809657288E-1,1.796837644E1
3.875751500E0,-1.860391296E1,-2.782114563E0,-9.713301086E-1,1.883584936E1
3.885777500E0,-1.874477005E1,-2.543660431E0,-1.550775146E0,1.898002940E1
3.895802500E0,-1.868968460E1,-2.638862457E0,-1.861379242E0,1.896661905E1
3.905828500E0,-1.886601791E1,-3.386856995E0,-1.551523590E0,1.923030571E1
3.915854500E0,-1.877755188E1,-4.349654846E0,-6.765930176E-1,1.928662049E1
3.925879500E0,-1.856035355E1,-5.272485809E0,1.654060364E-1,1.929541887E1
3.935905500E0,-1.833103043E1,-6.177054749E0,1.385818176E0,1.939337964E1
3.945931500E0,-1.807835587E1,-6.758595428E0,2.946173401E0,1.952397246E1
3.955956500E0,-1.831591187E1,-7.238347778E0,4.541855164E0,2.021125316E1
3.965982500E0,-1.924203598E1,-7.604187012E0,5.823340302E0,2.149397360E1
3.976007500E0,-2.012085846E1,-7.576943665E0,6.173312531E0,2.236892505E1
3.986033500E0,-2.052890991E1,-7.354955292E0,5.736221466E0,2.254851982E1
3.996059500E0,-2.035063065E1,-6.887327728E0,5.014572144E0,2.206194426E1
4.006084500E0,-1.979842896E1,-6.062093811E0,4.190086670E0,2.112542536E1
4.016110500E0,-1.861528931E1,-4.770878906E0,2.865790558E0,1.942943738E1
4.026136500E0,-1.711226486E1,-3.290906525E0,1.800306244E0,1.751858376E1
4.036161500E0,-1.568917419E1,-2.157313843E0,1.568588104E0,1.591429102E1
4.046187500E0,-1.392524231E1,-9.653425598E-1,1.369202728E0,1.402565420E1
4.056213500E0,-1.175550430E1,1.225950623E-1,1.134640503E0,1.181077136E1
4.066238500E0,-9.348060608E0,8.077203369E-1,1.666035461E-1,9.384370305E0
4.076264500E0,-6.554270325E0,1.216071167E0,-1.073567505E0,6.752024567E0
4.086290500E0,-3.687581635E0,1.335822144E0,-9.005273438E-1,4.024130789E0
4.096315500E0,-9.701325989E-1,1.430724792E0,-5.770500183E-1,1.822393321E0
4.106341500E0,1.145567780E0,1.246607666E0,-1.178948364E0,2.063074273E0
4.116367500E0,2.348166962E0,7.529342651E-1,-1.980232086E0,3.162612402E0
4.126392500E0,3.209176483E0,5.346881104E-1,-2.810405731E0,4.299195907E0
4.136418500E0,4.036955109E0,9.309141541E-1,-3.544179840E0,5.452047180E0
4.146444375E0,4.184398499E0,1.235381012E0,-3.853736115E0,5.821223160E0
4.156469375E0,3.777394867E0,1.274000702E0,-4.116888885E0,5.730668710E0
4.166495375E0,2.940784607E0,1.192719727E0,-4.293371887E0,5.338898446E0
4.176520375E0,2.146236877E0,1.170266418E0,-4.188290405E0,4.849498195E0
4.186546375E0,1.408720551E0,9.517208862E-1,-3.659589844E0,4.035203100E0
4.196572375E0,6.560856628E-1,4.318519592E-1,-2.671644287E0,2.784713218E0
4.206597375E0,3.611988831E-1,-4.775070190E-2,-1.403481445E0,1.450001700E0
4.216623375E0,5.297483826E-1,-2.580633545E-1,4.041595459E-2,5.906466737E-1
4.226649375E0,6.499484253E-1,-4.272116089E-1,1.301244049E0,1.515974535E0
4.236674375E0,4.827461243E-1,-6.018983459E-1,2.237397308E0,2.366700690E0
4.246700375E0,4.730163574E-2,-5.893244934E-1,2.680775299E0,2.745195259E0
4.256726375E0,-6.557862854E-1,-3.294648743E-1,2.636916504E0,2.737139274E0
4.266751375E0,-1.650018768E0,-3.607498169E-2,2.320025482E0,2.847170802E0
4.276777375E0,-2.388133850E0,3.354524231E-1,1.953886871E0,3.103769566E0
4.286803375E0,-2.802771606E0,7.132667542E-1,1.545386353E0,3.279100047E0
4.296828375E0,-3.215164032E0,9.572593689E-1,1.047821045E0,3.514477798E0
4.306854375E0,-3.445534973E0,1.033600616E0,5.078938293E-1,3.632904847E0
4.316880375E0,-3.135080566E0,1.097817078E0,-1.616638184E-2,3.321775707E0
4.326905375E0,-2.568059692E0,1.105900269E0,-3.507206726E-1,2.817969300E0
4.336931375E0,-2.234253845E0,1.054107971E0,-5.137316895E-1,2.523282408E0
4.346956375E0,-2.154769135E0,9.759704590E-1,-6.765930176E-1,2.460350884E0
4.356982375E0,-2.154320068E0,9.568103027E-1,-7.951464844E-1,2.487737696E0
4.367008375E0,-2.255060577E0,1.015338593E0,-1.067130890E0,2.693506822E0
4.377033375E0,-2.587070160E0,1.020278320E0,-1.199605408E0,3.028688330E0
4.387059375E0,-2.963836670E0,1.027463379E0,-1.140178986E0,3.337666388E0
4.397085375E0,-3.399730225E0,1.073866882E0,-1.343007202E0,3.809858793E0
4.407110375E0,-3.576811981E0,1.053958282E0,-1.321152649E0,3.955989931E0
4.417136375E0,-3.787124634E0,9.053173828E-1,-9.142987061E-1,3.999731826E0
4.427162375E0,-4.199666748E0,6.348298645E-1,-5.978567505E-1,4.289247305E0
4.437187375E0,-5.200485535E0,3.170407104E-1,-3.914360046E-1,5.224824088E0
4.447213375E0,-7.089706879E0,-4.326004028E-2,-2.661465454E-1,7.094832559E0
4.457239375E0,-9.378297729E0,-6.126759338E-1,-3.174897766E-1,9.403650348E0
4.467264375E0,-1.178843582E1,-1.317410431E0,-7.831713867E-1,1.188764681E1
4.477290375E0,-1.439765991E1,-2.462529144E0,-1.184935913E0,1.465471712E1
4.487316375E0,-1.672786423E1,-4.024381256E0,-1.137783966E0,1.724272712E1
4.497341375E0,-1.864926865E1,-5.178331604E0,-1.009949799E0,1.938118515E1
4.507367375E0,-1.991204269E1,-5.263953552E0,-7.940986633E-1,2.061138627E1
4.517393375E0,-2.135174881E1,-5.113067322E0,-2.312690735E-1,2.195664182E1
4.527418375E0,-2.325788498E1,-5.258864136E0,7.843688965E-2,2.384514664E1
4.537444375E0,-2.437830505E1,-4.953499146E0,-7.125183105E-1,2.488667502E1
4.547469375E0,-2.387041122E1,-3.320844269E0,-1.993704071E0,2.418262588E1
4.557495375E0,-2.245734970E1,-1.049916687E0,-2.788401489E0,2.265414010E1
4.567521375E0,-2.054866882E1,6.812333679E-1,-2.867586823E0,2.075897212E1
4.577546375E0,-1.869058273E1,1.396446075E0,-2.671943665E0,1.893217440E1
4.587572375E0,-1.687530762E1,1.080153809E0,-1.613794098E0,1.698667333E1
4.597598375E0,-1.503293884E1,-3.038681030E-1,1.704954529E-1,1.503697625E1
4.607623375E0,-1.251262985E1,-1.848206635E0,2.101629639E0,1.282180255E1
4.617649375E0,-9.640103302E0,-2.710114288E0,4.634961548E0,1.103445421E1
4.627675375E0,-7.871231689E0,-3.137176208E0,6.721173248E0,1.081537483E1
4.637700375E0,-7.707322540E0,-3.238814850E0,7.131020966E0,1.098836668E1
4.647726375E0,-9.316925354E0,-3.100502472E0,6.268215179E0,1.164940922E1
4.657752375E0,-1.177586197E1,-2.647544403E0,4.552782440E0,1.289993195E1
4.667777375E0,-1.392988266E1,-1.974693604E0,2.553090820E0,1.429892718E1
4.677803375E0,-1.540626251E1,-1.073866882E0,6.167175293E-2,1.544376632E1
4.687829375E0,-1.623553802E1,-3.528163147E-1,-1.920057220E0,1.635248587E1
4.697854375E0,-1.606324631E1,-1.571731567E-1,-3.290158081E0,1.639749144E1
4.707880375E0,-1.546404236E1,-7.123686218E-1,-4.026476898E0,1.599551785E1
4.717906375E0,-1.562765213E1,-2.055974579E0,-3.551813965E0,1.615753462E1
4.727931375E0,-1.627310989E1,-3.452121277E0,-2.263293457E0,1.678850036E1
4.737957375E0,-1.761491959E1,-4.484374695E0,-8.967851257E-1,1.819887997E1
4.747982375E0,-1.946312622E1,-4.919968872E0,2.423460388E-1,2.007680521E1
4.758008375E0,-2.115580627E1,-4.938380585E0,8.514294434E-1,2.174122062E1
4.768034375E0,-2.244253052E1,-4.654271393E0,6.270460510E-1,2.292864159E1
4.778059375E0,-2.304517731E1,-4.553680573E0,3.667373657E-2,2.349079711E1
4.788085375E0,-2.278067734E1,-4.864883423E0,-5.683680725E-1,2.330127449E1
4.798111375E0,-2.181174225E1,-5.829327850E0,-1.085692291E0,2.260336017E1
4.808136375E0,-2.034134995E1,-7.265591125E0,-6.387217712E-1,2.160942613E1
4.818162375E0,-1.835842346E1,-8.390202484E0,5.110372925E-1,2.019129438E1
4.828188375E0,-1.637385040E1,-8.828341370E0,1.948647766E0,1.870400536E1
4.838213375E0,-1.531270706E1,-8.509354706E0,3.254981232E0,1.781805315E1
4.848239375E0,-1.524295212E1,-7.498057709E0,4.018094330E0,1.745604596E1
4.858265375E0,-1.570833435E1,-5.986351318E0,4.083358612E0,1.729919038E1
4.868290375E0,-1.594289658E1,-4.133204956E0,3.551364899E0,1.684848738E1
4.878316375E0,-1.560549820E1,-2.295177155E0,2.772085419E0,1.601511379E1
4.888342375E0,-1.432251617E1,-8.924441528E-1,1.851649475E0,1.446926162E1
4.898367375E0,-1.170475983E1,2.130070496E-1,8.327183533E-1,1.173627686E1
4.908393375E0,-8.590336304E0,1.043929138E0,-1.592687988E-1,8.655000428E0
4.918419375E0,-5.732778625E0,1.400936737E0,-7.749385071E-1,5.952134424E0
4.928444375E0,-3.323838043E0,1.399439850E0,-1.365610199E0,3.856322399E0
4.938470375E0,-1.404379578E0,1.356778564E0,-1.915566559E0,2.735420500E0
4.948496375E0,-9.550140381E-2,1.354383545E0,-2.049687653E0,2.458596099E0
4.958521375E0,7.369175720E-1,1.183439026E0,-2.194885712E0,2.600211284E0
4.968547375E0,1.703158264E0,8.939410400E-1,-2.095492401E0,2.844462526E0
4.978572375E0,2.479743347E0,8.304730225E-1,-1.658101959E0,3.096468087E0
4.988598375E0,2.628833313E0,8.506809998E-1,-1.290915527E0,3.049735341E0
4.998624375E0,2.430196381E0,8.110134888E-1,-9.960287476E-1,2.748758009E0
5.008649375E0,1.992656250E0,8.470884705E-1,-6.584806824E-1,2.263147060E0
5.018675375E0,1.306483154E0,1.042282562E0,-5.423222351E-1,1.757089804E0
5.028701375E0,6.906637573E-1,1.333576813E0,-7.652087402E-1,1.685523052E0
5.038726375E0,-1.405577087E-1,1.555864563E0,-1.054856415E0,1.884991529E0
5.048752375E0,-1.251846771E0,1.551523590E0,-1.369502106E0,2.418652891E0
5.058778375E0,-1.965113525E0,1.517993317E0,-1.645378418E0,2.978799257E0
5.068803375E0,-2.322719879E0,1.436263275E0,-1.539249115E0,3.134831362E0
5.078829375E0,-2.063908081E0,1.090931396E0,-1.236578522E0,2.641774843E0
5.088855375E0,-1.204545135E0,7.667056274E-1,-7.167095947E-1,1.597635486E0
5.098880375E0,-5.321434021E-1,5.914201355E-1,-2.273771667E-1,8.274386703E-1
5.108906375E0,-3.040177917E-1,3.638932800E-1,-1.586700439E-2,4.744437783E-1
5.118932375E0,-3.260220337E-1,2.124082947E-1,8.068222046E-2,3.973880607E-1
5.128957375E0,-5.637277222E-1,3.086581421E-1,-1.212478638E-2,6.428108617E-1
5.138983375E0,-7.595205688E-1,3.888912964E-1,-2.830613708E-1,8.990170602E-1
5.149008875E0,-6.897656250E-1,4.608915710E-1,-4.617897034E-1,9.494458320E-1
5.159034875E0,-4.480183411E-1,5.990542603E-1,-4.448748779E-1,8.703448154E-1
5.169060875E0,-3.004252625E-1,5.809419250E-1,-5.519023132E-1,8.557715945E-1
5.179085875E0,-3.556604004E-1,3.848497009E-1,-4.105961609E-1,6.657272865E-1
5.189111875E0,-5.378315735E-1,1.933978271E-1,-2.393522644E-1,6.196410473E-1
5.199137875E0,-9.732760620E-1,6.930587769E-2,-2.248324585E-1,1.001308760E0
5.209162875E0,-1.885179749E0,-6.586303711E-2,-1.013392639E-1,1.889050097E0
5.219188875E0,-2.928210754E0,-2.308200073E-1,-2.359094238E-1,2.946752340E0
5.229214875E0,-3.675905914E0,-2.740800476E-1,-3.462300110E-1,3.702334316E0
5.239239875E0,-4.430187378E0,-2.065704346E-1,-3.849993896E-1,4.451680141E0
5.249265875E0,-5.131179657E0,-1.619631958E-1,-4.908293152E-1,5.157145544E0
5.259291875E0,-6.185587006E0,-3.047662354E-1,-5.107379150E-1,6.214114762E0
5.269316875E0,-7.864046631E0,-7.851173401E-1,-8.749305725E-1,7.951423907E0
5.279342875E0,-9.818532257E0,-1.735790405E0,-1.395098877E0,1.006791164E1
5.289368875E0,-1.171209457E1,-2.896177368E0,-1.682201843E0,1.218157649E1
5.299393875E0,-1.344878311E1,-4.105961609E0,-1.689686279E0,1.416275848E1
5.309419875E0,-1.477622269E1,-5.144651642E0,-1.112486572E0,1.568572038E1
5.319444875E0,-1.614033600E1,-6.308331757E0,-1.739382935E-1,1.733019764E1
5.329470875E0,-1.832444412E1,-7.887847137E0,5.460644531E-1,1.995749411E1
5.339496875E0,-2.121672958E1,-1.001716919E1,1.138532410E0,2.349020112E1
5.349521875E0,-2.372850632E1,-1.179861465E1,1.685644684E0,2.655354435E1
5.359547875E0,-2.491778320E1,-1.210517715E1,2.124981079E0,2.778393022E1
5.369573875E0,-2.489607834E1,-1.061397812E1,2.318678284E0,2.716334878E1
5.379598875E0,-2.444177307E1,-7.965236206E0,2.135010223E0,2.579541679E1
5.389624875E0,-2.337060059E1,-5.779631195E0,2.100881195E0,2.416615009E1
5.399650875E0,-2.273562103E1,-4.761149139E0,2.291734314E0,2.334157345E1
5.409675875E0,-2.281600388E1,-4.801265717E0,2.518213348E0,2.345130239E1
5.419701875E0,-2.345098343E1,-5.992488556E0,3.049608307E0,2.439587370E1
5.429727875E0,-2.348241806E1,-7.101083221E0,3.508553925E0,2.478223742E1
5.439752875E0,-2.249252655E1,-7.271129608E0,3.564088440E0,2.390576924E1
5.449778875E0,-2.109922394E1,-6.663094025E0,3.102298737E0,2.234274670E1
5.459804875E0,-1.911195648E1,-5.532495117E0,2.081571350E0,2.000520737E1
5.469829875E0,-1.689865906E1,-4.183350677E0,8.234376526E-1,1.742822855E1
5.479855875E0,-1.552077438E1,-3.457360382E0,-3.781137085E-1,1.590568289E1
5.489881875E0,-1.411654449E1,-2.949017487E0,-1.411414948E0,1.449019064E1
5.499906875E0,-1.193977112E1,-2.254611511E0,-2.282004547E0,1.236320962E1
5.509932875E0,-9.513766022E0,-1.609153748E0,-2.122586060E0,9.879599753E0
5.519958875E0,-7.667205963E0,-1.329086151E0,-7.912545776E-1,7.821675082E0
5.529983875E0,-6.131699066E0,-1.179696808E0,2.671943665E-1,6.249864865E0
5.540009875E0,-5.066214752E0,-1.399140472E0,8.488847351E-1,5.323977016E0
5.550034875E0,-4.267326050E0,-1.653910675E0,9.526190186E-1,4.674716583E0
5.560060875E0,-4.282145233E0,-1.813029785E0,5.740562439E-1,4.685443989E0
5.570086875E0,-4.514761505E0,-1.963167572E0,-1.404080200E-1,4.925120585E0
5.580111875E0,-3.891158295E0,-1.772613831E0,-8.943901062E-1,4.368432937E0
5.590137875E0,-2.955304413E0,-1.408271484E0,-1.632804565E0,3.658292429E0
5.600163875E0,-2.044747925E0,-1.151705017E0,-2.338586884E0,3.313066123E0
5.610188875E0,-1.311273193E0,-9.927355957E-1,-2.870281219E0,3.308092446E0
5.620214875E0,-1.142873383E0,-9.258247375E-1,-3.215762787E0,3.536161947E0
5.630240875E0,-1.657652893E0,-1.254092102E0,-2.659818878E0,3.375677203E0
5.640265875E0,-2.011217651E0,-1.655856628E0,-1.919757843E0,3.236097618E0
5.650291875E0,-2.113155670E0,-1.982028351E0,-1.182690582E0,3.129316264E0
5.660317875E0,-2.249073029E0,-2.239043884E0,-1.868115234E-1,3.179079356E0
5.670342875E0,-2.651735687E0,-2.498005371E0,8.759783936E-1,3.746874849E0
5.680368875E0,-3.475472717E0,-2.600991211E0,1.670376434E0,4.651260401E0
5.690393875E0,-4.894970856E0,-2.790347443E0,1.882036285E0,5.940440986E0
5.700419875E0,-6.667884064E0,-3.273243256E0,1.569486237E0,7.591975128E0
5.710445875E0,-7.852520599E0,-3.757336578E0,9.618997192E-1,8.758133876E0
5.720470875E0,-8.791068878E0,-4.038451996E0,3.505709839E-1,9.680644945E0
5.730496875E0,-9.523196411E0,-4.264781342E0,-2.284249878E-1,1.043704018E1
5.740522875E0,-9.969418488E0,-4.399650879E0,-6.843768311E-1,1.091854406E1
5.750547875E0,-1.055724609E1,-4.416416016E0,-6.932084656E-1,1.146475963E1
5.760573875E0,-1.143696671E1,-4.442611542E0,-3.186872864E-1,1.227365334E1
5.770599875E0,-1.256591904E1,-4.436773682E0,1.264869690E-1,1.332678809E1
5.780624875E0,-1.371193588E1,-4.593946838E0,5.281018066E-1,1.447067465E1
5.790650875E0,-1.473969864E1,-4.945415955E0,9.253756714E-1,1.557472873E1
5.800676875E0,-1.564741104E1,-5.280119934E0,1.468146973E0,1.657940271E1
5.810701875E0,-1.589140366E1,-5.346881104E0,2.129022675E0,1.690143737E1
5.820727875E0,-1.530207916E1,-5.103936310E0,2.749482422E0,1.636347904E1
5.830753875E0,-1.391416534E1,-4.661606140E0,3.209026794E0,1.502106594E1
5.840778875E0,-1.215861603E1,-4.001179504E0,3.608396301E0,1.329894376E1
5.850804875E0,-1.041429337E1,-3.191812592E0,3.708088989E0,1.150630687E1
5.860830875E0,-9.073830872E0,-2.561473389E0,3.291056213E0,9.986320824E0
5.870855875E0,-8.252339172E0,-2.051334229E0,2.673590240E0,8.913874506E0
5.880881875E0,-7.797135773E0,-1.586550751E0,2.050585785E0,8.216895497E0
5.890906875E0,-7.671397247E0,-1.330732727E0,1.432521057E0,7.916647137E0
5.900932875E0,-7.381749573E0,-1.268611908E0,9.000782776E-1,7.543854707E0
5.910958875E0,-6.828500061E0,-1.072070618E0,6.204597473E-1,6.939936512E0
5.920983875E0,-6.278394012E0,-7.719447327E-1,3.727249146E-1,6.336643742E0
5.931009875E0,-6.102360077E0,-6.930587769E-1,1.098715210E-1,6.142572810E0
5.941035875E0,-5.957311707E0,-7.934999084E-1,-3.103047180E-1,6.017931031E0
5.951060875E0,-5.680537262E0,-8.656498718E-1,-8.455915833E-1,5.808001241E0
5.961086875E0,-5.279221802E0,-9.794132996E-1,-1.178948364E0,5.497213157E0
5.971112875E0,-4.807852020E0,-1.102607117E0,-1.261426849E0,5.091402675E0
5.981137875E0,-4.475842438E0,-1.118324432E0,-9.089099121E-1,4.702119978E0
5.991163875E0,-4.435576172E0,-1.185684357E0,-4.206253052E-1,4.610543245E0
6.001189875E0,-4.674329681E0,-1.330433350E0,8.367599487E-2,4.860700828E0
6.011214875E0,-5.180277557E0,-1.572629700E0,6.304888916E-1,5.450317054E0
6.021240875E0,-6.017486572E0,-2.025138702E0,9.660910034E-1,6.422200810E0
6.031266875E0,-6.720125427E0,-2.414628754E0,1.201102295E0,7.241074817E0
6.041291875E0,-7.090455322E0,-2.327958984E0,1.343007202E0,7.582718382E0
6.051317875E0,-7.509883118E0,-2.043251038E0,1.265019379E0,7.885017012E0
6.061342875E0,-7.955955505E0,-1.759590912E0,9.469308472E-1,8.203052250E0
6.071368875E0,-8.113278351E0,-1.407972107E0,4.189787292E-1,8.245193401E0
6.081394875E0,-8.183482361E0,-1.133293304E0,-8.038284302E-2,8.261973049E0
6.091419875E0,-8.417146454E0,-9.075627136E-1,-7.285350037E-1,8.497222355E0
6.101445875E0,-9.007518768E0,-9.298663330E-1,-1.254092102E0,9.141815616E0
6.111471875E0,-9.754914551E0,-1.396296387E0,-1.072968750E0,9.912581068E0
6.121496875E0,-1.063598236E1,-2.170636139E0,-7.854167175E-1,1.088359598E1
6.131522875E0,-1.213855774E1,-3.203937378E0,-2.291734314E-1,1.255636568E1
6.141548875E0,-1.416983368E1,-4.217779083E0,4.641847229E-1,1.479152847E1
6.151573167E0,-1.646081955E1,-5.198389893E0,1.188678131E0,1.730302845E1
6.161599167E0,-1.885583908E1,-5.867648163E0,1.755249939E0,1.982556089E1
6.171625167E0,-2.124008102E1,-6.041287079E0,1.863175507E0,2.216099308E1
6.181650167E0,-2.345801880E1,-6.084547119E0,1.632056122E0,2.428917386E1
6.191676167E0,-2.507136383E1,-6.159391479E0,1.109792175E0,2.584072418E1
6.201702167E0,-2.606230316E1,-6.057453461E0,2.412982178E-1,2.675807567E1
6.211727167E0,-2.675970291E1,-5.873036957E0,-1.543290710E-1,2.739704510E1
6.221753167E0,-2.774435532E1,-6.173162842E0,-2.622546387E-1,2.842403857E1
6.231778167E0,-2.862287842E1,-6.962022400E0,-6.560856628E-1,2.946471404E1
6.241804167E0,-2.889890442E1,-7.900870056E0,-4.303550720E-1,2.996257048E1
6.251830167E0,-2.836137222E1,-8.772507477E0,8.773255920E-1,2.970006771E1
6.261855167E0,-2.691283447E1,-9.376800842E0,2.757864990E0,2.863268888E1
6.271881167E0,-2.452125778E1,-9.192534027E0,3.553909607E0,2.642773238E1
6.281907167E0,-2.158541290E1,-9.057215424E0,2.960842896E0,2.359512221E1
6.291932167E0,-1.803988586E1,-8.419691162E0,2.187700653E0,2.002784850E1
6.301958167E0,-1.397868118E1,-6.864125977E0,1.577270050E0,1.565271650E1
6.311984167E0,-1.034693344E1,-5.215005341E0,1.322200470E0,1.166205498E1
6.322009167E0,-8.032296753E0,-3.847000122E0,1.557361450E0,9.041160089E0
6.332035167E0,-6.584507446E0,-2.636617126E0,1.792971497E0,7.315889212E0
6.342061167E0,-5.436993713E0,-1.469494171E0,1.909429321E0,5.946951664E0
6.352086167E0,-4.374203796E0,-6.340814209E-1,1.722168732E0,4.743583376E0
6.362112167E0,-3.536396027E0,-2.986289978E-1,1.314266968E0,3.784517644E0
6.372138167E0,-2.528092804E0,-3.239263916E-1,6.842271423E-1,2.639005175E0
6.382163167E0,-1.248104553E0,-3.832031250E-1,3.212319946E-1,1.344544386E0
6.392189167E0,4.668791199E-1,-6.938072205E-1,-9.969268799E-2,8.421895296E-1
6.402214167E0,3.232228546E0,-1.311273193E0,-5.962101746E-1,3.538672821E0
6.412240167E0,5.444777527E0,-1.723515930E0,-1.141077118E0,5.823930500E0
6.422266167E0,6.258036346E0,-1.896556091E0,-1.949096832E0,6.823409879E0
6.432291167E0,5.409001923E0,-1.980531464E0,-2.584824829E0,6.313566827E0
6.442317167E0,3.396886139E0,-1.675016785E0,-2.809956665E0,4.715970009E0
6.452343167E0,1.409319305E0,-1.237925720E0,-2.827320557E0,3.392990204E0
6.462368167E0,1.125659180E-1,-8.569679260E-1,-2.536924438E0,2.680121400E0
6.472394167E0,-7.738906860E-2,-4.529580688E-1,-1.928439789E0,1.982432874E0
6.482420167E0,-1.975891113E-2,-2.201921082E-1,-1.160237274E0,1.181111981E0
6.492445167E0,1.781295776E-2,-1.471440125E-1,-5.343887329E-1,5.545628727E-1
6.502471167E0,2.395019531E-3,-1.178050232E-1,1.604663086E-1,1.990808775E-1
6.512497167E0,8.981323242E-4,-1.496887207E-4,7.457492065E-1,7.457497624E-1
6.522522167E0,-1.264869690E-1,1.216969299E-1,9.490264893E-1,9.651219474E-1
6.532548167E0,-5.312452698E-1,1.592687988E-1,1.069675598E0,1.204904134E0
6.542573167E0,-6.855743408E-1,4.535568237E-2,9.877958679E-1,1.203249763E0
6.552599167E0,-2.213896179E-1,-2.823129272E-1,7.268884277E-1,8.106051679E-1
6.562625167E0,3.571572876E-1,-4.954696655E-1,8.912466431E-1,1.080449951E0
6.572650167E0,6.815327454E-1,-5.620811462E-1,1.349593506E0,1.613017275E0
6.582676167E0,7.523355103E-1,-5.712121582E-1,1.383273468E0,1.675033593E0
6.592702167E0,4.965174866E-1,-6.188131714E-1,1.508712616E0,1.704603506E0
6.602727167E0,2.664459229E-2,-5.746549988E-1,1.562899933E0,1.665411211E0
6.612753167E0,-5.601351929E-1,-3.248245239E-1,1.286424866E0,1.440191425E0
6.622779167E0,-1.294957123E0,-6.092330933E-2,9.759704590E-1,1.622696502E0
6.632804167E0,-1.985321503E0,1.785786438E-1,5.047503662E-1,2.056250163E0
6.642830167E0,-2.486179962E0,5.096900940E-1,-3.652404785E-2,2.538150666E0
6.652856167E0,-2.960094452E0,7.244934082E-1,-3.861968994E-1,3.071839499E0
6.662881167E0,-3.439248047E0,7.479945374E-1,-6.592291260E-1,3.580852691E0
6.672907167E0,-4.109404449E0,6.360273743E-1,-7.943980408E-1,4.233533276E0
6.682933167E0,-5.688770142E0,3.195854187E-1,-8.288264465E-1,5.757707343E0
6.692958167E0,-7.939789124E0,5.942642212E-2,-6.406677246E-1,7.965816842E0
6.702984167E0,-1.041683807E1,-4.008663940E-1,-3.387455750E-1,1.043005071E1
6.713009167E0,-1.294433212E1,-1.187630310E0,-3.442840576E-2,1.299874552E1
6.723035167E0,-1.496572861E1,-1.979783020E0,1.790277100E-1,1.509717273E1
6.733061167E0,-1.653925644E1,-2.746189270E0,6.402186584E-1,1.677791522E1
6.743086167E0,-1.810559921E1,-3.645219727E0,1.168021088E0,1.850579971E1
6.753112167E0,-1.943019470E1,-4.201762390E0,1.556912384E0,1.994019181E1
6.763138167E0,-2.125055923E1,-4.693639526E0,1.880240021E0,2.184380512E1
6.773163167E0,-2.296015411E1,-5.293442230E0,1.786684570E0,2.363009626E1
6.783189167E0,-2.441408066E1,-5.877228241E0,1.259480896E0,2.514309922E1
6.793215167E0,-2.571517502E1,-6.470893707E0,8.201445007E-1,2.652951806E1
6.803240167E0,-2.626303574E1,-6.756649475E0,1.039887543E0,2.713817835E1
6.813266167E0,-2.548615128E1,-6.035449219E0,1.761237488E0,2.625019070E1
6.823292167E0,-2.369332947E1,-3.964655457E0,2.722239075E0,2.417649560E1
6.833317167E0,-2.165636536E1,-2.040107574E0,3.675905914E0,2.206065465E1
6.843343167E0,-2.004496628E1,-1.082548828E0,4.645739136E0,2.060474405E1
6.853369167E0,-1.899819305E1,-7.921527100E-1,5.230423279E0,1.972095771E1
6.863394167E0,-1.817101318E1,-1.116228790E0,5.835764465E0,1.911773610E1
6.873420167E0,-1.719668930E1,-1.766626282E0,6.024971008E0,1.830703053E1
6.883445167E0,-1.565609299E1,-2.274071045E0,5.533243561E0,1.676011429E1
6.893471167E0,-1.384141663E1,-2.506687317E0,5.003944244E0,1.493009556E1
6.903497167E0,-1.224214233E1,-2.409090271E0,4.028422852E0,1.311113861E1
6.913522167E0,-1.096634537E1,-2.106569366E0,2.587369537E0,1.146267187E1
6.923548167E0,-9.979297943E0,-1.586700439E0,8.827143860E-1,1.014313514E1
6.933574167E0,-9.249715118E0,-1.202000427E0,-8.137078857E-1,9.362913826E0
6.943599167E0,-8.534502411E0,-6.740483093E-1,-2.361040192E0,8.880685971E0
6.953625167E0,-7.539072418E0,2.799179077E-2,-3.373983765E0,8.259670872E0
6.963651167E0,-6.570885773E0,6.104306030E-1,-3.774850159E0,7.602542935E0
6.973676167E0,-5.839356995E0,8.020321655E-1,-3.559448090E0,6.885565802E0
6.983702167E0,-5.281317444E0,6.897656250E-1,-3.015179901E0,6.120408515E0
6.993728167E0,-4.849166107E0,3.170407104E-1,-2.212099915E0,5.339317632E0
7.003753167E0,-4.200265503E0,-1.666035461E-1,-1.398841095E0,4.430208059E0
7.013779167E0,-3.737278290E0,-5.869294739E-1,-7.394622803E-1,3.854677637E0
7.023805167E0,-3.518134003E0,-1.011147308E0,-1.953437805E-1,3.665766623E0
7.033830167E0,-3.329077148E0,-1.206491089E0,3.640429688E-1,3.559621144E0
7.043856167E0,-3.449277191E0,-1.265618134E0,7.695497131E-1,3.753865896E0
7.053881167E0,-3.839365997E0,-1.432221680E0,5.673202515E-1,4.136888017E0
7.063907167E0,-4.283642120E0,-1.817370758E0,-9.116043091E-2,4.654109637E0
7.073933167E0,-4.465813293E0,-2.133213959E0,-8.056246948E-1,5.014291706E0
7.083958167E0,-4.444407806E0,-2.318827972E0,-1.244961090E0,5.165234944E0
7.093984167E0,-4.496948547E0,-2.550396423E0,-1.412013702E0,5.359183786E0
7.104010167E0,-4.886139221E0,-2.644999695E0,-1.162332916E0,5.676389494E0
7.114035167E0,-5.782325592E0,-2.559826813E0,-7.134164429E-1,6.363722620E0
7.124061167E0,-6.992558899E0,-2.520458679E0,-3.929328918E-1,7.443318357E0
7.134087167E0,-8.210576019E0,-2.608176270E0,-2.844085693E-1,8.619572510E0
7.144112167E0,-9.448801117E0,-2.859353943E0,-9.789642334E-2,9.872453151E0
7.154138250E0,-1.039513321E1,-3.105741577E0,4.385879517E-2,1.084925568E1
7.164164250E0,-1.093221634E1,-3.429667969E0,2.270777893E-1,1.145982289E1
7.174189250E0,-1.142933258E1,-3.805236969E0,4.830455017E-1,1.205582036E1
7.184215250E0,-1.199949692E1,-4.134252777E0,5.828878784E-1,1.270510648E1
7.194240250E0,-1.260349091E1,-4.524940338E0,3.576063538E-1,1.339593037E1
7.204266250E0,-1.315689011E1,-4.938530273E0,-3.128494263E-2,1.405324935E1
7.214292250E0,-1.347662521E1,-5.222040710E0,-2.336640930E-1,1.445488621E1
7.224317250E0,-1.362840958E1,-5.281766510E0,-2.472857666E-1,1.461819945E1
7.234343250E0,-1.376297974E1,-5.049150238E0,-2.053729248E-1,1.466136786E1
7.244369250E0,-1.372944946E1,-4.406237183E0,1.151106262E-1,1.441963797E1
7.254394250E0,-1.339160202E1,-3.362457733E0,4.420307922E-1,1.381435912E1
7.264420250E0,-1.302381683E1,-2.428699493E0,6.252497864E-1,1.326308122E1
7.274446250E0,-1.259450958E1,-1.818867645E0,8.722361755E-1,1.275502831E1
7.284471250E0,-1.189890610E1,-1.259929962E0,1.119072876E0,1.201764178E1
7.294497250E0,-1.115195938E1,-1.001417542E0,1.352886658E0,1.127826837E1
7.304523250E0,-1.045426025E1,-9.136999512E-1,1.908830566E0,1.066630391E1
7.314548250E0,-9.603130188E0,-8.428971863E-1,2.554587708E0,9.972788147E0
7.324574250E0,-8.700357513E0,-9.183403015E-1,3.086132355E0,9.277056790E0
7.334599250E0,-7.878865814E0,-1.138831787E0,3.584595795E0,8.730566498E0
7.344625250E0,-7.357350311E0,-1.353186035E0,3.885769501E0,8.429763974E0
7.354651250E0,-7.086713104E0,-1.403481445E0,4.010609894E0,8.262944663E0
7.364676250E0,-6.868466949E0,-1.448238373E0,4.097728729E0,8.128014109E0
7.374702250E0,-6.653513947E0,-1.614542542E0,3.979923706E0,7.919330032E0
7.384728250E0,-6.479425964E0,-1.767674103E0,3.708538055E0,7.672084923E0
7.394753250E0,-6.445895691E0,-1.859732666E0,3.381318512E0,7.512755269E0
7.404779250E0,-6.377787323E0,-1.903741150E0,3.008443909E0,7.304186214E0
7.414805250E0,-6.202052765E0,-1.974843292E0,2.694846039E0,7.044690178E0
7.424830250E0,-5.925727386E0,-2.066153412E0,2.332898712E0,6.695196142E0
7.434856250E0,-5.714965668E0,-2.129322052E0,1.850601654E0,6.373348529E0
7.444882250E0,-5.685476990E0,-2.196532288E0,1.346150665E0,6.241916717E0
7.454907250E0,-5.720504150E0,-2.123933258E0,8.677455139E-1,6.163460270E0
7.464933250E0,-5.701194305E0,-1.942510529E0,6.215075684E-1,6.055017367E0
7.474958250E0,-5.745053101E0,-1.704954529E0,6.361770630E-1,6.026377546E0
7.484984250E0,-5.697152710E0,-1.352886658E0,6.032455444E-1,5.886574258E0
7.495010250E0,-5.543871460E0,-1.033899994E0,5.275030518E-1,5.664072689E0
7.505035250E0,-5.534141693E0,-8.747808838E-1,5.999523926E-1,5.634883206E0
7.515061250E0,-5.736969910E0,-9.476792908E-1,6.613247681E-1,5.852202169E0
7.525087250E0,-6.205645294E0,-1.338366852E0,6.140231323E-1,6.377952944E0
7.535112250E0,-6.606960754E0,-1.839225311E0,4.637356567E-1,6.873843969E0
7.545138250E0,-7.130571899E0,-2.325264587E0,4.727169800E-1,7.515009804E0
7.555164250E0,-7.950566711E0,-2.784210205E0,4.965174866E-1,8.438593906E0
7.565189250E0,-9.046737213E0,-3.344046021E0,7.232958984E-1,9.672086380E0
7.575215250E0,-1.033795212E1,-3.859124908E0,1.432670746E0,1.112738264E1
7.585241250E0,-1.171688461E1,-3.891008606E0,2.751727753E0,1.264900544E1
7.595266250E0,-1.358455078E1,-3.476221161E0,4.363575897E0,1.468553465E1
7.605292250E0,-1.577240112E1,-3.012485504E0,5.489833832E0,1.697003187E1
7.615318250E0,-1.839060654E1,-3.017275543E0,5.702541504E0,1.948941610E1
7.625343250E0,-2.078128510E1,-3.622616730E0,5.727389832E0,2.185836582E1
7.635369250E0,-2.159888489E1,-4.463717651E0,5.359904022E0,2.269725038E1
7.645394250E0,-2.338392288E1,-5.938301239E0,4.385879517E0,2.452156622E1
7.655420250E0,-2.546624268E1,-7.562872925E0,3.393592987E0,2.678139347E1
7.665446250E0,-2.525982193E1,-8.640032959E0,2.250270538E0,2.679127640E1
7.675471250E0,-2.327554825E1,-8.331524506E0,6.213578796E-1,2.472956798E1
7.685497250E0,-2.203552689E1,-7.603139191E0,-2.547702026E-1,2.331173693E1
7.695523250E0,-2.247007324E1,-7.801925812E0,1.860630798E-1,2.378673701E1
7.705548250E0,-2.292437851E1,-8.591683502E0,1.135538635E0,2.450782739E1
7.715574250E0,-2.185949295E1,-8.893006897E0,2.145488434E0,2.369654246E1
7.725600250E0,-1.990725266E1,-9.072483673E0,3.679348755E0,2.218437007E1
7.735625250E0,-1.789857971E1,-9.492959290E0,5.135370941E0,2.090089631E1
7.745651250E0,-1.607372452E1,-9.563462677E0,6.552024994E0,1.981800872E1
7.755677250E0,-1.466934494E1,-9.004524994E0,7.782765656E0,1.889027773E1
7.765702250E0,-1.354832611E1,-8.109087067E0,8.507558441E0,1.793580174E1
7.775728250E0,-1.265917511E1,-6.986421661E0,8.525221710E0,1.678523778E1
7.785753250E0,-1.205413330E1,-5.757177887E0,7.989785156E0,1.556547120E1
7.795779250E0,-1.103894440E1,-4.365521851E0,6.896758118E0,1.372885090E1
7.805805250E0,-9.447154541E0,-2.985990601E0,5.495072937E0,1.132963792E1
7.815830250E0,-7.095544739E0,-1.651066589E0,3.789669342E0,8.211843261E0
7.825856250E0,-4.635111237E0,-5.536985779E-1,1.937121735E0,5.054035903E0
7.835882250E0,-2.699935455E0,-7.933502197E-3,5.803431702E-1,2.761614129E0
7.845907250E0,-1.223705292E0,2.865042114E-1,-5.739065552E-1,1.381632382E0
7.855933250E0,-1.878593445E-1,3.475772095E-1,-1.265468445E0,1.325711671E0
7.865959250E0,6.499484253E-1,1.812730408E-1,-1.578317871E0,1.716502308E0
7.875984250E0,1.317410431E0,9.520202637E-2,-1.753154297E0,2.195036140E0
7.886010250E0,1.543290710E0,-1.077758789E-2,-1.586550751E0,2.213369752E0
7.896036250E0,1.544488220E0,-1.570234680E-1,-1.560355225E0,2.201092606E0
7.906061250E0,1.401385803E0,-2.526745605E-1,-1.917512512E0,2.388426435E0
7.916087250E0,1.113833771E0,-3.317102051E-1,-2.372865601E0,2.642186308E0
7.926112250E0,8.105644226E-1,-2.784210205E-1,-2.671644287E0,2.805746985E0
7.936138250E0,5.773493958E-1,-6.092330933E-2,-2.567011871E0,2.631842306E0
7.946164250E0,1.728904724E-1,1.188528442E-1,-1.826501770E0,1.838511852E0
7.956189250E0,-3.945794678E-1,2.513273621E-1,-7.581733704E-1,8.908901497E-1
7.966215250E0,-8.647517395E-1,3.486250305E-1,2.041754150E-1,9.544750300E-1
7.976241250E0,-1.276695099E0,3.245251465E-1,1.182540894E0,1.770217476E0
7.986266250E0,-1.590143280E0,3.439846802E-1,1.999691620E0,2.577915376E0
7.996292250E0,-1.610800323E0,4.758604431E-1,2.610271912E0,3.103971697E0
8.006318250E0,-1.606609039E0,5.608836365E-1,3.110082550E0,3.545193440E0
8.016343250E0,-1.633403320E0,5.854325867E-1,3.669768677E0,4.059302879E0
8.026369250E0,-1.582658844E0,7.132667542E-1,3.868255920E0,4.239924804E0
8.036395250E0,-1.594933319E0,7.899073792E-1,3.827241211E0,4.220846034E0
8.046420250E0,-1.645677795E0,8.050259399E-1,3.544329529E0,3.989811271E0
8.056446250E0,-1.786983948E0,8.777746582E-1,3.062780914E0,3.653002451E0
8.066471250E0,-1.687740326E0,1.048868866E0,2.272125092E0,3.018467448E0
8.076497250E0,-1.530267792E0,1.150357819E0,1.558109894E0,2.468349462E0
8.086523250E0,-1.389410706E0,1.209933929E0,8.867559814E-1,2.044685402E0
8.096548250E0,-1.275796967E0,1.143172760E0,3.104544067E-1,1.740943364E0
8.106574250E0,-1.139131165E0,9.491761780E-1,-4.086502075E-2,1.483315603E0
8.116600250E0,-1.095721436E0,6.698570251E-1,-1.133143616E-1,1.289245532E0
8.126625250E0,-1.255139923E0,4.324507141E-1,-8.921447754E-2,1.330544652E0
8.136651250E0,-1.522184601E0,1.868115234E-1,-2.454895020E-1,1.553128971E0
8.146677250E0,-1.845212860E0,-1.326242065E-1,-4.349954224E-1,1.900426451E0
8.156702375E0,-2.094145203E0,-4.083508301E-1,-6.713539124E-1,2.236718714E0
8.166728375E0,-2.233954468E0,-6.336323547E-1,-7.572752380E-1,2.442439009E0
8.176754375E0,-2.785258026E0,-1.018631744E0,-5.138813782E-1,3.009874910E0
8.186779375E0,-4.136049042E0,-1.814975739E0,1.332229614E-2,4.516770538E0
8.196805375E0,-6.572532349E0,-3.051703949E0,6.975494385E-1,7.279948742E0
8.206830375E0,-1.021071671E1,-4.774920502E0,1.809437256E0,1.141633324E1
8.216856375E0,-1.487381973E1,-6.898105316E0,3.048859863E0,1.667662786E1
8.226882375E0,-2.037787399E1,-9.304800568E0,4.166435852E0,2.278587830E1
8.236907375E0,-2.436094116E1,-1.099343903E1,5.626050568E0,2.731233423E1
8.246933375E0,-2.600781647E1,-1.161898819E1,5.827381897E0,2.907517470E1
8.256959375E0,-2.609074402E1,-1.009276199E1,4.278403015E0,2.830009718E1
8.266984375E0,-2.692944992E1,-8.461005249E0,3.814966736E0,2.848399294E1
8.277010375E0,-2.797457657E1,-8.318351898E0,3.780837708E0,2.942901028E1
8.287036375E0,-2.779165695E1,-8.477620697E0,3.473526764E0,2.926280296E1
8.297061375E0,-2.576816483E1,-7.868986359E0,4.103566589E0,2.725359652E1
8.307087375E0,-2.209285767E1,-6.681206360E0,6.914870453E0,2.409457017E1
8.317113375E0,-1.850017868E1,-5.951623535E0,1.070738388E1,2.218843175E1
8.327138375E0,-1.600097580E1,-5.943690033E0,1.378992371E1,2.194357932E1
8.337164375E0,-1.464644257E1,-6.014492798E0,1.431054108E1,2.134207088E1
8.347189375E0,-1.446876205E1,-6.644682312E0,1.093865295E1,1.931711694E1
8.357215375E0,-1.484028946E1,-6.838828583E0,8.353229370E0,1.835157237E1
8.367241375E0,-1.466680023E1,-5.901328125E0,5.788911896E0,1.683603883E1
8.377266375E0,-1.330193848E1,-4.866230621E0,1.748513947E0,1.427161759E1
8.387292375E0,-1.199710190E1,-4.192781067E0,-2.293829956E0,1.291400491E1
8.397318375E0,-1.127814697E1,-3.323838043E0,-5.651946716E0,1.304565062E1
8.407343375E0,-1.076860657E1,-2.267634430E0,-7.536677399E0,1.333816177E1
8.417369375E0,-1.024349854E1,-1.511856079E0,-7.843090210E0,1.298957409E1
8.427395375E0,-9.454040222E0,-1.006357269E0,-6.534661102E0,1.153661247E1
8.437420375E0,-8.173602905E0,-4.498146057E-1,-3.937561798E0,9.083749806E0
8.447446375E0,-6.935826874E0,-2.679428101E-2,-1.337319031E0,7.063627577E0
8.457472375E0,-5.904321899E0,9.205856323E-2,6.692582703E-1,5.942844311E0
8.467497375E0,-5.205724640E0,1.167572021E-2,2.013912048E0,5.581715425E0
8.477523375E0,-4.856800232E0,-1.592687988E-1,2.841241608E0,5.629078869E0
8.487548375E0,-4.412224731E0,-8.577163696E-2,3.422333221E0,5.584572368E0
8.497574375E0,-3.817062378E0,1.088237000E-1,3.601061554E0,5.248757197E0
8.507600375E0,-3.372037811E0,2.174977112E-1,3.399281158E0,4.793021662E0
8.517625375E0,-3.369193726E0,1.463955688E-1,2.993475037E0,4.509300480E0
8.527651375E0,-3.866609344E0,-4.700225830E-2,2.538571014E0,4.625712900E0
8.537677375E0,-4.628824310E0,-2.808160400E-1,2.176024933E0,5.122495159E0
8.547702375E0,-5.549709320E0,-5.815406799E-1,1.978585510E0,5.920495226E0
8.557728375E0,-6.551276550E0,-9.473799133E-1,1.895508270E0,6.885470553E0
8.567754375E0,-7.426506500E0,-1.345551910E0,1.699865112E0,7.736475305E0
8.577779375E0,-8.221503296E0,-1.981130219E0,1.412313080E0,8.573950176E0
8.587805375E0,-9.071735229E0,-2.817590790E0,1.097068634E0,9.562361503E0
8.597831375E0,-9.864636383E0,-3.720962219E0,8.053253174E-1,1.057379590E1
8.607856375E0,-1.073567505E1,-4.799020386E0,5.246589661E-1,1.177117592E1
8.617882375E0,-1.189097260E1,-5.985752563E0,4.267625427E-1,1.331940649E1
8.627907375E0,-1.282353333E1,-6.964716797E0,4.763095093E-1,1.460058758E1
8.637933375E0,-1.332618805E1,-7.632927246E0,5.069956970E-1,1.536573822E1
8.647959375E0,-1.335896988E1,-7.733667755E0,6.336323547E-1,1.544905121E1
8.657984375E0,-1.290436523E1,-7.288493500E0,6.848258972E-1,1.483623153E1
8.668010375E0,-1.232297424E1,-6.423143005E0,1.044378204E0,1.393568032E1
8.678036375E0,-1.155791519E1,-5.194348297E0,1.741328888E0,1.279057794E1
8.688061375E0,-1.059601547E1,-3.849694519E0,2.258054352E0,1.149758676E1
8.698087375E0,-9.954599304E0,-2.712509308E0,3.140169983E0,1.078482367E1
8.708113375E0,-9.483977966E0,-1.874551849E0,3.959715729E0,1.044696757E1
8.718138375E0,-9.188043365E0,-1.446142731E0,4.382286987E0,1.028182420E1
8.728164375E0,-9.110354919E0,-1.350341949E0,4.824467468E0,1.039699363E1
8.738190375E0,-8.714877319E0,-1.364263000E0,5.196144562E0,1.023768619E1
8.748215375E0,-8.061635742E0,-1.493144989E0,5.331014099E0,9.779527807E0
8.758241375E0,-7.497458954E0,-1.813778229E0,5.081782379E0,9.237217892E0
8.768266375E0,-7.155120850E0,-2.282603302E0,4.687651978E0,8.853254389E0
8.778292375E0,-6.744375000E0,-2.549198914E0,4.327051849E0,8.408827918E0
8.788318375E0,-6.334377594E0,-2.648442535E0,3.976630554E0,7.934240854E0
8.798343375E0,-6.170917511E0,-2.731220398E0,3.503614197E0,7.603624151E0
8.808369375E0,-6.182443542E0,-2.776127014E0,2.971171417E0,7.399820873E0
8.818395375E0,-6.183491364E0,-2.678380280E0,2.520907745E0,7.194738510E0
8.828420375E0,-6.132297821E0,-2.542163544E0,2.008223877E0,6.935462147E0
8.838446375E0,-6.370153198E0,-2.540516968E0,1.478026428E0,7.015528516E0
8.848472375E0,-6.706952820E0,-2.609224091E0,8.884025574E-1,7.251243037E0
8.858497375E0,-6.933880920E0,-2.630479889E0,2.526745605E-1,7.420375563E0
8.868523375E0,-7.241042175E0,-2.748434601E0,1.782792664E-1,7.747152253E0
8.878549375E0,-7.659571838E0,-3.027005310E0,3.044668579E-1,8.241632239E0
8.888574375E0,-8.170758820E0,-3.320095825E0,3.017724609E-1,8.824704108E0
8.898600375E0,-8.549770660E0,-3.598666534E0,4.406835938E-1,9.286720691E0
8.908625375E0,-8.672814789E0,-3.743714905E0,7.357200623E-1,9.474935444E0
8.918651375E0,-8.652157745E0,-3.670966187E0,1.006656647E0,9.452469730E0
8.928677375E0,-8.597970428E0,-3.475323029E0,1.233884125E0,9.355502962E0
8.938702375E0,-8.391250305E0,-3.131637726E0,1.399589539E0,9.065268193E0
8.948728375E0,-8.082442474E0,-2.742746429E0,1.631756744E0,8.689716014E0
8.958754375E0,-7.764353943E0,-2.220482483E0,1.960772552E0,8.310256531E0
8.968779375E0,-7.498806152E0,-1.782343597E0,2.288291473E0,8.040218920E0
8.978805375E0,-7.320227509E0,-1.614093475E0,2.487826538E0,7.898120625E0
8.988831375E0,-7.344327393E0,-1.719025269E0,2.531685333E0,7.956357417E0
8.998856375E0,-7.555388489E0,-2.031575317E0,2.637215881E0,8.256276466E0
9.008882375E0,-7.765401764E0,-2.252366180E0,2.592608643E0,8.490950332E0
9.018907375E0,-7.949219513E0,-2.443668365E0,2.172881470E0,8.595523243E0
9.028933375E0,-8.280630341E0,-2.701282654E0,1.739981689E0,8.882190219E0
9.038959375E0,-8.637787628E0,-2.814597015E0,1.257085876E0,9.171346486E0
9.048984375E0,-9.130113831E0,-2.665956116E0,7.768844604E-1,9.543052449E0
9.059010375E0,-9.569450226E0,-2.234253845E0,2.192939758E-1,9.829260283E0
9.069036375E0,-9.646539917E0,-1.426832886E0,-4.484674072E-1,9.761798373E0
9.079061375E0,-9.550439758E0,-5.917195129E-1,-9.837542725E-1,9.619189364E0
9.089087375E0,-9.281000061E0,7.918533325E-2,-1.226998444E0,9.362091520E0
9.099113375E0,-8.818761292E0,5.495072937E-1,-1.265917511E0,8.926088512E0
9.109138375E0,-8.167166290E0,7.930508423E-1,-1.234632568E0,8.297942663E0
9.119164375E0,-7.385641479E0,7.282356262E-1,-8.746311951E-1,7.472817870E0
9.129190375E0,-6.510710907E0,3.866459656E-1,-2.243833923E-1,6.526040110E0
9.139215375E0,-5.807473297E0,-4.640350342E-2,3.320095825E-1,5.817141028E0
9.149241875E0,-5.455106049E0,-6.631210327E-1,1.036594391E0,5.592176628E0
9.159266875E0,-5.533992004E0,-1.376687164E0,1.847607880E0,5.994496637E0
9.169292875E0,-5.975573730E0,-1.966909790E0,2.587369537E0,6.802256732E0
9.179318875E0,-6.479276276E0,-2.345472565E0,3.056344299E0,7.538136579E0
9.189343875E0,-7.130122833E0,-2.673590240E0,3.112028503E0,8.226266334E0
9.199369875E0,-8.017477570E0,-3.065625000E0,2.920876007E0,9.066946557E0
9.209395875E0,-9.135502625E0,-3.538791046E0,2.466870117E0,1.010276687E1
9.219420875E0,-1.025741959E1,-4.029320984E0,1.962419128E0,1.119380065E1
9.229446875E0,-1.122665405E1,-4.516557770E0,1.496587830E0,1.219331089E1
9.239472875E0,-1.213601303E1,-4.993016968E0,1.315015411E0,1.318871852E1
9.249497875E0,-1.302501434E1,-5.267396393E0,1.603764954E0,1.414102279E1
9.259523875E0,-1.377734985E1,-5.084327087E0,2.246228943E0,1.485635539E1
9.269548875E0,-1.472458008E1,-4.830305328E0,3.098406830E0,1.580332980E1
9.279574875E0,-1.617745880E1,-4.582271118E0,4.050726471E0,1.729496363E1
9.289600875E0,-1.815739151E1,-4.452041931E0,5.301824799E0,1.943246999E1
9.299625875E0,-2.061617844E1,-4.540807343E0,6.798712006E0,2.217810248E1
9.309651875E0,-2.326207626E1,-4.658013611E0,8.531508636E0,2.521126579E1
9.319677875E0,-2.566413116E1,-5.103636932E0,1.035082535E1,2.813955088E1
9.329702875E0,-2.771920761E1,-6.001769257E0,1.137484589E1,3.055753301E1
9.339728875E0,-2.926908463E1,-7.148833923E0,1.047955765E1,3.189994153E1
9.349754875E0,-2.962324814E1,-8.873397675E0,8.212971039E0,3.199573268E1
9.359779875E0,-2.785871750E1,-1.118758530E1,5.812263336E0,3.057862996E1
9.369805875E0,-2.315340225E1,-1.181493073E1,3.603157196E0,2.624224391E1
9.379831875E0,-1.808868439E1,-1.120794296E1,2.419119415E0,2.141659700E1
9.389856875E0,-1.531195862E1,-1.132874176E1,2.164498901E0,1.916980757E1
9.399882875E0,-1.415127228E1,-1.140268799E1,2.405797119E0,1.833214827E1
9.409907875E0,-1.433464096E1,-1.042477158E1,3.054398346E0,1.798574833E1
9.419933875E0,-1.523891052E1,-8.600664825E0,2.704276428E0,1.770618368E1
9.429959875E0,-1.603705078E1,-6.676266632E0,1.777553558E0,1.746193662E1
9.439984875E0,-1.585173615E1,-4.867577820E0,8.342152405E-1,1.660321558E1
9.450010875E0,-1.431548080E1,-3.187471619E0,4.116439819E-2,1.466610584E1
9.460036875E0,-1.142214752E1,-2.311792603E0,-1.609153748E-1,1.165485876E1
9.470061875E0,-8.108787689E0,-2.252515869E0,6.556365967E-2,8.416089598E0
9.480087875E0,-4.972958679E0,-2.053280182E0,2.288740540E-1,5.385040470E0
9.490113875E0,-2.283501434E0,-1.594484253E0,4.640350342E-1,2.823488507E0
9.500138875E0,-2.703378296E-1,-1.227297821E0,7.420069885E-1,1.459423467E0
9.510164875E0,1.157542877E0,-7.276368713E-1,8.002359009E-1,1.584215398E0
9.520190875E0,2.466421051E0,1.245410156E-1,7.393125916E-1,2.577853055E0
9.530215875E0,3.005300446E0,1.157393188E0,7.632627869E-1,3.309676698E0
9.540241875E0,2.444117432E0,1.623074799E0,5.522016907E-1,2.985466216E0
9.550266875E0,1.454225922E0,1.614991608E0,1.528321838E-1,2.178607032E0
9.560292875E0,1.688488770E-1,1.669777679E0,-1.074765015E-1,1.681730847E0
9.570318875E0,-1.114133148E0,1.657353516E0,-2.441423035E-1,2.011894334E0
9.580343875E0,-2.040706329E0,1.583107910E0,-3.680845642E-1,2.608869338E0
9.590369875E0,-2.602637787E0,1.553619232E0,-3.085084534E-1,3.046741478E0
9.600395875E0,-2.753973083E0,1.533261566E0,-1.751358032E-1,3.156886334E0
9.610420875E0,-2.425106964E0,1.348395996E0,-1.080752563E-1,2.776867986E0
9.620446875E0,-1.800006866E0,1.066681824E0,-5.598358154E-2,2.093076442E0
9.630472875E0,-1.229842529E0,8.065228271E-1,-2.604583740E-2,1.470941910E0
9.640497875E0,-6.935078430E-1,4.854405212E-1,3.053649902E-2,8.470762101E-1
9.650523875E0,-1.645079041E-1,2.787203979E-1,1.118174744E-1,3.424194187E-1
9.660548875E0,2.273771667E-1,1.972897339E-1,1.884580994E-1,3.551620338E-1
9.670574875E0,2.255809021E-1,1.230441284E-1,5.180726624E-1,5.782956721E-1
9.680600875E0,-9.131011963E-3,2.389031982E-1,7.933502197E-1,8.285907824E-1
9.690625875E0,-4.264631653E-1,3.531156921E-1,1.071771240E0,1.206339552E0
9.700651875E0,-1.020877075E0,3.995191956E-1,1.334774323E0,1.727260282E0
9.710677875E0,-1.543739777E0,4.568499756E-1,1.608854370E0,2.276017746E0
9.720702875E0,-2.062411194E0,4.387376404E-1,1.907483368E0,2.843329641E0
9.730728875E0,-2.665656738E0,3.936813354E-1,2.047442322E0,3.384188367E0
9.740754875E0,-2.965183868E0,2.888992310E-1,1.957928467E0,3.565005192E0
9.750779875E0,-3.172652435E0,8.891510010E-2,1.877695312E0,3.687732238E0
9.760805875E0,-3.273392944E0,5.403762817E-2,1.614392853E0,3.650244610E0
9.770831875E0,-3.426524506E0,3.338058472E-2,1.172212372E0,3.621638620E0
9.780856875E0,-3.720812531E0,2.200424194E-2,9.228309631E-1,3.833607578E0
9.790882875E0,-4.085753632E0,-4.894821167E-2,8.556207275E-1,4.174669507E0
9.800907875E0,-4.888983307E0,-4.942721558E-1,1.002914429E0,5.015206884E0
9.810933875E0,-6.252946930E0,-1.524130554E0,1.610800323E0,6.634530649E0
9.820959875E0,-7.780220947E0,-2.481389923E0,1.995949402E0,8.406720404E0
9.830984875E0,-9.298513641E0,-3.057092743E0,2.349364471E0,1.006616538E1
9.841010875E0,-1.015293686E1,-3.358116760E0,3.013533325E0,1.111037615E1
9.851036875E0,-1.103011276E1,-3.568728790E0,3.457061005E0,1.209754039E1
9.861061875E0,-1.209589645E1,-3.792214050E0,3.909869385E0,1.326569550E1
9.871087875E0,-1.262160324E1,-4.017046509E0,4.318818970E0,1.393175252E1
9.881113875E0,-1.331271606E1,-4.685406647E0,4.604874115E0,1.484541377E1
9.891138875E0,-1.424512711E1,-5.949827271E0,4.982987823E0,1.622203003E1
9.901164875E0,-1.450693268E1,-7.197931824E0,5.148842926E0,1.699328990E1
9.911189875E0,-1.495854355E1,-8.080197144E0,5.082830200E0,1.774493657E1
9.921215875E0,-1.572195602E1,-8.935967560E0,5.175786896E0,1.881010865E1
9.931241875E0,-1.612012802E1,-9.368717651E0,5.670807495E0,1.948818759E1
9.941266875E0,-1.640139313E1,-8.998088379E0,5.724246368E0,1.956369821E1
9.951292875E0,-1.726794113E1,-8.552315369E0,5.587430878E0,2.006348108E1
9.961318875E0,-1.839958786E1,-8.305328979E0,5.371729431E0,2.088968166E1
9.971343875E0,-1.871812546E1,-7.761958923E0,5.015769653E0,2.087520472E1
9.981369875E0,-1.802536606E1,-6.780000916E0,4.994813232E0,1.989548675E1
9.991395875E0,-1.666873718E1,-5.550457764E0,5.078339539E0,1.828780777E1
1.000142087E1,-1.553544388E1,-4.608316956E0,5.098846893E0,1.698778506E1
1.001144687E1,-1.485795273E1,-3.967798920E0,5.098248138E0,1.620167651E1
1.002147188E1,-1.440589279E1,-3.330873413E0,4.949607239E0,1.559240445E1
1.003149787E1,-1.393242737E1,-2.740650787E0,4.665947113E0,1.494639627E1
1.004152387E1,-1.318622910E1,-2.046693878E0,4.111051025E0,1.396303456E1
1.005154887E1,-1.242446320E1,-1.153501282E0,3.099454651E0,1.285707860E1
1.006157487E1,-1.175535461E1,-4.334985352E-1,2.060914307E0,1.194251443E1
1.007160088E1,-1.098131424E1,7.005432129E-2,1.347497864E0,1.106390169E1
1.008162587E1,-1.009575577E1,3.781137085E-1,5.921685791E-1,1.012017382E1
1.009165187E1,-9.220525818E0,4.754113770E-1,-1.444496155E-1,9.233903726E0
1.010167787E1,-8.304580536E0,3.752696228E-1,-7.077282715E-1,8.343126780E0
1.011170288E1,-7.365882568E0,1.055305481E-1,-9.358538818E-1,7.425845756E0
1.012172887E1,-6.923103333E0,1.017883301E-2,-1.145717468E0,7.017273821E0
1.013175487E1,-6.668632507E0,-8.711883545E-2,-1.228944397E0,6.781486086E0
1.014177987E1,-6.494843903E0,-4.773573303E-1,-9.367520142E-1,6.579389917E0
1.015180525E1,-6.462361450E0,-8.472381592E-1,-3.294648743E-1,6.525984609E0
1.016183025E1,-6.507717133E0,-1.195863190E0,1.892065430E-1,6.619385935E0
1.017185625E1,-6.779701538E0,-1.589694214E0,6.747967529E-1,6.996201205E0
1.018188225E1,-7.170987854E0,-1.923649750E0,1.178648987E0,7.517493505E0
1.019190725E1,-7.148085480E0,-2.121238861E0,1.571432190E0,7.619985529E0
1.020193325E1,-7.071744232E0,-2.291884003E0,1.872156830E0,7.665981344E0
1.021195925E1,-7.242389374E0,-2.509830780E0,1.993853760E0,7.920032020E0
1.022198425E1,-7.647896118E0,-2.752625885E0,2.002984772E0,8.371332767E0
1.023201025E1,-8.226892090E0,-3.049308929E0,1.948498077E0,8.987584946E0
1.024203625E1,-8.913514252E0,-3.473975830E0,1.814227295E0,9.737076823E0
1.025206125E1,-9.601932678E0,-3.886667633E0,1.803150330E0,1.051449702E1
1.026208725E1,-1.033720367E1,-4.354744263E0,1.709594879E0,1.134655419E1
1.027211225E1,-1.103355560E1,-4.918921051E0,1.603315887E0,1.218629375E1
1.028213825E1,-1.150567383E1,-5.377267914E0,1.522334290E0,1.279113139E1
1.029216425E1,-1.164383652E1,-5.654491425E0,1.564396820E0,1.303838715E1
1.030218925E1,-1.158470947E1,-5.606890411E0,1.577868805E0,1.296658720E1
1.031221525E1,-1.130928223E1,-5.247038727E0,1.561253357E0,1.256458483E1
1.032224125E1,-1.100571350E1,-4.647236023E0,1.748064880E0,1.207386695E1
1.033226625E1,-1.072819061E1,-3.893104248E0,2.062860260E0,1.159766041E1
1.034229225E1,-1.043689636E1,-3.152743835E0,2.355501709E0,1.115423631E1
1.035231825E1,-1.021146515E1,-2.524051208E0,2.811303864E0,1.088798808E1
1.036234325E1,-9.947863312E0,-1.874851227E0,3.314707031E0,1.065186999E1
1.037236925E1,-9.517807617E0,-1.268761597E0,3.709136810E0,1.029349861E1
1.038239525E1,-9.010512543E0,-8.416996765E-1,3.969595184E0,9.882078757E0
1.039242025E1,-8.472980347E0,-6.300398254E-1,4.077969818E0,9.424339976E0
1.040244625E1,-8.038284302E0,-6.680607605E-1,4.095782776E0,9.046311748E0
1.041247125E1,-7.588320007E0,-9.336085510E-1,4.158951416E0,8.703510920E0
1.042249725E1,-7.192393341E0,-1.363664246E0,4.039649506E0,8.361152449E0
1.043252325E1,-6.876550140E0,-1.807341614E0,3.667972412E0,8.000465434E0
1.044254825E1,-6.762038269E0,-2.292782135E0,3.332519989E0,7.879574922E0
1.045257425E1,-6.819069672E0,-2.786006470E0,3.101849670E0,7.992685069E0
1.046260025E1,-6.935527496E0,-3.249293060E0,2.782114563E0,8.148595492E0
1.047262525E1,-7.103777618E0,-3.624113617E0,2.593656464E0,8.385994861E0
1.048265125E1,-7.404801636E0,-3.878734131E0,2.482587433E0,8.720029019E0
1.049267725E1,-7.813302155E0,-4.103716278E0,2.313439178E0,9.123605575E0
1.050270225E1,-8.271499329E0,-4.286785583E0,2.052082672E0,9.539668499E0
1.051272825E1,-8.604706421E0,-4.274511108E0,1.800605621E0,9.775203241E0
1.052275325E1,-8.748856659E0,-4.076023865E0,1.827848969E0,9.823313862E0
1.053277925E1,-8.751251678E0,-3.801644440E0,1.854044495E0,9.719793587E0
1.054280525E1,-8.801547089E0,-3.434308319E0,1.789528656E0,9.615826412E0
1.055283025E1,-8.818761292E0,-3.060535583E0,1.860630798E0,9.518370435E0
1.056285625E1,-8.678502960E0,-2.606230316E0,2.067500610E0,9.294267527E0
1.057288225E1,-8.505313110E0,-2.230361938E0,2.277813263E0,9.083132650E0
1.058290725E1,-8.520880737E0,-2.061962128E0,2.452350311E0,9.103357535E0
1.059293325E1,-8.683891754E0,-2.036664734E0,2.583028564E0,9.286011835E0
1.060295925E1,-8.789721680E0,-1.968107300E0,2.878364410E0,9.456089849E0
1.061298425E1,-8.705147552E0,-1.811682587E0,3.215762787E0,9.455311629E0
1.062301025E1,-8.581205292E0,-1.837279358E0,3.371888123E0,9.401186585E0
1.063303525E1,-8.508755951E0,-2.091001740E0,3.370690613E0,9.387905587E0
1.064306125E1,-8.426576843E0,-2.317331085E0,3.116369476E0,9.278414701E0
1.065308725E1,-8.324938202E0,-2.414628754E0,2.909499664E0,9.143315393E0
1.066311225E1,-8.300389252E0,-2.504142609E0,2.907254333E0,9.144359994E0
1.067313825E1,-8.318651276E0,-2.514471130E0,2.797532501E0,9.129551588E0
1.068316425E1,-8.432714081E0,-2.527793427E0,2.628234558E0,9.187383919E0
1.069318925E1,-8.577014008E0,-2.544708252E0,2.531685333E0,9.297856742E0
1.070321525E1,-8.677754517E0,-2.519111481E0,2.474504242E0,9.368698808E0
1.071324125E1,-8.609496460E0,-2.531984711E0,2.394570465E0,9.288075343E0
1.072326625E1,-8.473279724E0,-2.543660431E0,2.258653107E0,9.130618354E0
1.073329225E1,-8.369096375E0,-2.594554596E0,2.273023224E0,9.052078339E0
1.074331725E1,-8.257129211E0,-2.622546387E0,2.370470581E0,8.982041146E0
1.075334325E1,-8.070617065E0,-2.577190704E0,2.467019806E0,8.823999006E0
1.076336925E1,-7.843389587E0,-2.460583191E0,2.593057709E0,8.619581088E0
1.077339425E1,-7.673792267E0,-2.296524353E0,2.712958374E0,8.457024004E0
1.078342025E1,-7.421566772E0,-1.970202942E0,2.778971100E0,8.166029229E0
1.079344625E1,-7.121740265E0,-1.625320129E0,2.788700867E0,7.819060202E0
1.080347125E1,-6.865772552E0,-1.157991943E0,2.530787201E0,7.408418316E0
1.081349725E1,-6.582411804E0,-6.914122009E-1,1.870959320E0,6.877985517E0
1.082352325E1,-6.342460785E0,-4.052073669E-1,1.221759338E0,6.471761561E0
1.083354825E1,-6.090384979E0,-1.290316772E-1,7.843688965E-1,6.142041431E0
1.084357425E1,-5.774990845E0,1.766326904E-2,2.909948730E-1,5.782344616E0
1.085360025E1,-5.616919556E0,7.080276489E-2,-2.101629639E-1,5.621295829E0
1.086362525E1,-5.865702209E0,-1.025367737E-1,-4.102967834E-1,5.880928468E0
1.087365125E1,-6.294859772E0,-3.519181824E-1,-2.704875183E-1,6.310488844E0
1.088367625E1,-6.634204102E0,-4.900808716E-1,3.757186890E-2,6.652387163E0
1.089370225E1,-6.996301117E0,-6.738986206E-1,3.088078308E-1,7.035462383E0
1.090372825E1,-7.567363586E0,-9.940827942E-1,3.173400879E-1,7.638972246E0
1.091375325E1,-8.127349091E0,-1.367556152E0,3.007246399E-1,8.247087266E0
1.092377925E1,-8.315358124E0,-1.717827759E0,3.357518005E-1,8.497578608E0
1.093380525E1,-8.330027618E0,-2.094145203E0,2.151026917E-1,8.591919077E0
1.094383025E1,-8.594078522E0,-2.555036774E0,-1.020877075E-1,8.966427407E0
1.095385625E1,-9.040749664E0,-3.025957489E0,-2.526745605E-1,9.537054978E0
1.096388225E1,-9.657916260E0,-3.560944977E0,-8.217910767E-2,1.029380537E1
1.097390725E1,-1.053299652E1,-3.990551605E0,2.842588806E-1,1.126717893E1
1.098393325E1,-1.150791916E1,-4.193230133E0,5.959107971E-1,1.226256466E1
1.099395825E1,-1.314057404E1,-4.297862549E0,1.115180969E0,1.387046997E1
1.100398425E1,-1.526360916E1,-4.401896210E0,1.544188843E0,1.596054429E1
1.101401025E1,-1.824181595E1,-4.769232330E0,1.800904999E0,1.894076780E1
1.102403525E1,-2.190589645E1,-5.166955261E0,2.137704620E0,2.260830615E1
1.103406125E1,-2.419598419E1,-5.109923859E0,1.923200684E0,2.480434788E1
1.104408725E1,-2.565619766E1,-5.249134369E0,8.467890930E-1,2.620135382E1
1.105411225E1,-2.704246490E1,-6.020180969E0,-2.460882568E-1,2.770555985E1
1.106413825E1,-2.832993759E1,-6.421795807E0,-1.073118439E0,2.906847792E1
1.107416425E1,-3.065759720E1,-6.772666168E0,-1.549427948E0,3.143498051E1
1.108418925E1,-3.358984955E1,-8.290509796E0,-1.047821045E0,3.461370356E1
1.109421525E1,-3.457255600E1,-9.763297119E0,3.553610229E-1,3.592645099E1
1.110424025E1,-3.092733627E1,-1.053509216E1,2.554887085E0,3.277217942E1
1.111426625E1,-2.475731689E1,-1.081501007E1,5.691763916E0,2.760951574E1
1.112429225E1,-1.952599548E1,-9.829160156E0,8.101452942E0,2.331331012E1
1.113431725E1,-1.655063278E1,-7.907007294E0,7.741451569E0,1.990915072E1
1.114434325E1,-1.568198914E1,-5.964347076E0,6.021528168E0,1.782574040E1
1.115436937E1,-1.559052933E1,-3.919748840E0,4.345613251E0,1.665272921E1
1.116439437E1,-1.523516830E1,-2.681523743E0,2.109263763E0,1.561249232E1
1.117442037E1,-1.431398392E1,-1.996847534E0,-5.334906006E-1,1.446243921E1
1.118444638E1,-1.308773392E1,-1.031055908E0,-3.366050262E0,1.355293879E1
1.119447137E1,-1.127859604E1,-6.399192810E-1,-4.978646851E0,1.234516706E1
1.120449737E1,-8.226443024E0,-5.472619629E-1,-4.204157410E0,9.254663689E0
1.121452337E1,-4.784051514E0,-6.369255066E-1,-2.839145966E0,5.599426113E0
1.122454838E1,-1.304537201E0,-9.096583557E-1,-2.068548431E0,2.609250514E0
1.123457437E1,1.752256165E0,-4.956193542E-1,-1.161734161E0,2.160015387E0
1.124459937E1,3.555855560E0,1.628613281E-1,-1.724414062E-1,3.563757654E0
1.125462537E1,4.522545319E0,3.264710999E-1,-2.155517578E-2,4.534364803E0
1.126465138E1,4.725672913E0,1.478924561E-1,-5.939648438E-1,4.765149619E0
1.127467637E1,4.436324615E0,3.847000122E-2,-1.106499023E0,4.572395010E0
1.128470237E1,3.683390350E0,3.921844482E-2,-1.318458252E0,3.912446130E0
1.129472837E1,2.971770172E0,-1.107696533E-2,-9.999206543E-1,3.135503464E0
1.130475338E1,2.519261169E0,-6.795867920E-2,-4.251159668E-1,2.555781447E0
1.131477937E1,2.052082672E0,5.119354248E-2,2.079176331E-1,2.063224131E0
1.132480537E1,1.350341949E0,1.282832336E-1,8.152047729E-1,1.582541876E0
1.133483037E1,4.475692749E-1,3.697311401E-2,1.247505798E0,1.325879325E0
1.134485638E1,-4.257147217E-1,-1.351689148E-1,1.484612732E0,1.550347904E0
1.135488137E1,-1.287023621E0,-2.091151428E-1,1.572030945E0,2.042410398E0
1.136490737E1,-2.035616913E0,-1.959425354E-1,1.446292419E0,2.504773733E0
1.137493337E1,-2.335144043E0,-1.134640503E-1,1.081800385E0,2.576055874E0
1.138495838E1,-2.510429535E0,-1.811233521E-2,5.971083069E-1,2.580527628E0
1.139498437E1,-2.417173462E0,1.520837402E-1,9.250762939E-2,2.423719181E0
1.140501037E1,-1.779649200E0,3.026705933E-1,-1.272354126E-2,1.805248640E0
1.141503537E1,-1.172212372E0,3.318598938E-1,-6.586303711E-3,1.218300543E0
1.142506138E1,-8.044271851E-1,2.577639771E-1,-1.601669312E-1,8.597667182E-1
1.143508637E1,-6.165678406E-1,2.465373230E-1,-4.430786133E-1,7.982826637E-1
1.144511237E1,-6.354286194E-1,2.532733154E-1,-7.738906860E-1,1.032871578E0
1.145513837E1,-8.891510010E-1,1.972897339E-1,-1.132544861E0,1.453330865E0
1.146516338E1,-7.378157043E-1,2.203417969E-1,-1.692380676E0,1.859321079E0
1.147518937E1,-5.508544922E-2,3.526666260E-1,-2.439177704E0,2.465156390E0
1.148521537E1,6.355783081E-1,3.258723450E-1,-3.170257416E0,3.249720704E0
1.149524037E1,6.845265198E-1,6.077362061E-2,-3.487896881E0,3.554953536E0
1.150526637E1,1.278341675E-1,-4.152365112E-1,-3.333268433E0,3.361464172E0
1.151529237E1,-5.144801331E-1,-8.912466431E-1,-2.911295929E0,3.087823566E0
1.152531737E1,-1.027164001E0,-1.138083344E0,-2.303260345E0,2.766822691E0
1.153534337E1,-1.295855255E0,-1.382824402E0,-1.713935852E0,2.555194762E0
1.154536838E1,-1.737137604E0,-1.822759552E0,-1.716929626E0,3.047613293E0
1.155539437E1,-2.605332184E0,-2.284549255E0,-2.175875244E0,4.091619993E0
1.156542037E1,-3.722758484E0,-2.335742798E0,-2.811902618E0,5.217415211E0
1.157544537E1,-5.815855865E0,-2.474055176E0,-3.714226227E0,7.330798382E0
1.158547137E1,-9.702673187E0,-3.378025360E0,-4.345613251E0,1.115514576E1
1.159549738E1,-1.452923630E1,-5.238207092E0,-4.351451111E0,1.604595425E1
1.160552237E1,-1.969319778E1,-8.273445282E0,-3.664978638E0,2.167265568E1
1.161554837E1,-2.413880310E1,-1.238329880E1,-2.339784393E0,2.723054343E1
1.162557437E1,-2.666435120E1,-1.575159439E1,-8.396040344E-1,3.098072442E1
1.163559938E1,-2.720248215E1,-1.706122101E1,9.075627136E-1,3.212295079E1
1.164562537E1,-2.718930954E1,-1.661724426E1,3.188369751E0,3.202431985E1
1.165565037E1,-2.886627228E1,-1.636546783E1,4.657115479E0,3.350789366E1
1.166567637E1,-3.066987167E1,-1.700718338E1,4.984185333E0,3.542213176E1
1.167570238E1,-3.071926895E1,-1.659808411E1,5.260959778E0,3.531072895E1
1.168572737E1,-2.796664307E1,-1.353694977E1,4.995262299E0,3.146958498E1
1.169575337E1,-2.334380630E1,-9.386680298E0,4.412823486E0,2.554439412E1
1.170577937E1,-1.958976288E1,-6.299799500E0,4.194577332E0,2.100097051E1
1.171580438E1,-1.672382263E1,-3.707939301E0,3.699257355E0,1.752482702E1
1.172583037E1,-1.494731689E1,-2.003583527E0,3.119213562E0,1.540019878E1
1.173585637E1,-1.391431503E1,-1.666334839E0,2.795885925E0,1.428991997E1
1.174588137E1,-1.254406448E1,-1.831142120E0,2.320025482E0,1.288755809E1
1.175590738E1,-1.092398346E1,-1.867815857E0,1.907034302E0,1.124539597E1
1.176593337E1,-9.296717377E0,-1.721420288E0,1.532662811E0,9.578167731E0
1.177595837E1,-7.838300171E0,-1.597328339E0,9.839039612E-1,8.059682028E0
1.178598437E1,-6.636000366E0,-1.414857788E0,2.682421875E-1,6.790454866E0
1.179600938E1,-5.709277496E0,-1.155447235E0,-4.242178345E-1,5.840451063E0
1.180603537E1,-5.291645966E0,-9.267228699E-1,-9.762698364E-1,5.460168047E0
1.181606137E1,-5.424419861E0,-6.397695923E-1,-1.437909851E0,5.648116562E0
1.182608637E1,-5.387895813E0,-2.827619934E-1,-1.793869629E0,5.685714017E0
1.183611238E1,-5.289101257E0,-3.293151855E-3,-1.805695038E0,5.588840445E0
1.184613837E1,-5.344186707E0,1.359173584E-1,-1.633403320E0,5.589884747E0
1.185616337E1,-5.395230560E0,3.505709839E-1,-1.440604248E0,5.595243821E0
1.186618937E1,-5.327571259E0,3.905378723E-1,-1.015937347E0,5.437615657E0
1.187621438E1,-5.083728333E0,2.386038208E-1,-5.336402893E-1,5.117225567E0
1.188624037E1,-4.733606415E0,7.304809570E-2,-1.151106262E-1,4.735569255E0
1.189626637E1,-4.687352600E0,-1.454974365E-1,7.768844604E-2,4.690253660E0
1.190629137E1,-5.519472198E0,-4.914280701E-1,3.667373657E-2,5.541427601E0
1.191631737E1,-6.433321838E0,-6.529421997E-1,-3.966751099E-2,6.466493401E0
1.192634338E1,-7.034172363E0,-6.074368286E-1,-1.630110168E-1,7.062232857E0
1.193636837E1,-7.599846039E0,-6.779402161E-1,-4.819976807E-1,7.645232797E0
1.194639437E1,-8.562194824E0,-9.915380859E-1,-3.884422302E-1,8.628164078E0
1.195642037E1,-9.238488464E0,-1.539249115E0,-1.546284485E-1,9.367116253E0
1.196644538E1,-8.909921722E0,-2.303559723E0,-3.038681030E-1,9.207900321E0
1.197647137E1,-8.474477234E0,-3.268453217E0,-2.586621094E-1,9.086608658E0
1.198649737E1,-8.566685486E0,-4.539609833E0,1.736389160E-2,9.695177108E0
1.199652237E1,-8.731792145E0,-5.755681000E0,5.484594727E-1,1.047248135E1
1.200654838E1,-9.022936707E0,-6.444249115E0,1.149759064E0,1.114736199E1
1.201657337E1,-9.283993835E0,-6.520740051E0,1.896406403E0,1.150256274E1
1.202659937E1,-1.004965164E1,-6.299200745E0,2.486778717E0,1.211856000E1
1.203662537E1,-1.108340195E1,-5.672154694E0,2.503693542E0,1.269974877E1
1.204665038E1,-1.174083481E1,-4.597689056E0,1.823957062E0,1.274020275E1
1.205667637E1,-1.234108658E1,-3.304228821E0,1.045276337E0,1.281846124E1
1.206670237E1,-1.250798950E1,-2.121388550E0,4.619393921E-1,1.269501787E1
1.207672737E1,-1.221040833E1,-1.173559570E0,3.143463135E-2,1.226671519E1
1.208675338E1,-1.142109970E1,-6.120771790E-1,-3.532653809E-2,1.143754365E1
1.209677937E1,-1.008422974E1,-3.971241760E-1,4.770579529E-1,1.010331536E1
1.210680437E1,-8.743467865E0,-5.965095520E-1,1.233884125E0,8.850227341E0
1.211683037E1,-7.502548370E0,-1.072669373E0,1.981130219E0,7.833500404E0
1.212685538E1,-6.398294678E0,-1.505569153E0,2.682571564E0,7.099373455E0
1.213688137E1,-5.907165985E0,-2.051483917E0,3.428320770E0,7.131379919E0
1.214690737E1,-5.864804077E0,-2.617456970E0,3.992796936E0,7.562369683E0
1.215693287E1,-6.166726227E0,-3.000959473E0,4.240382080E0,8.063194795E0
1.216695888E1,-6.725663910E0,-3.201542358E0,4.154161377E0,8.528861896E0
1.217698487E1,-7.566315765E0,-3.288511505E0,3.721710663E0,9.050666961E0
1.218700987E1,-8.691974945E0,-3.319347382E0,2.988684998E0,9.772447672E0
1.219703587E1,-9.403894501E0,-3.240910492E0,2.131567383E0,1.017252732E1
1.220706187E1,-9.765243073E0,-3.178939362E0,1.182241516E0,1.033747178E1
1.221708687E1,-9.897567902E0,-3.084785156E0,7.993377686E-2,1.036745577E1
1.222711287E1,-9.912387085E0,-3.091221771E0,-7.316784668E-1,1.040895879E1
1.223713787E1,-1.021221359E1,-3.006198578E0,-1.243015137E0,1.071781801E1
1.224716387E1,-1.078432388E1,-2.731220398E0,-1.684447174E0,1.125160294E1
1.225718988E1,-1.129521149E1,-2.427202606E0,-2.027683411E0,1.172964684E1
1.226721487E1,-1.160102554E1,-1.981130219E0,-2.241289215E0,1.198048613E1
1.227724087E1,-1.156749527E1,-1.537303162E0,-2.154170380E0,1.186636835E1
1.228726687E1,-1.127485382E1,-1.249302063E0,-1.933080139E0,1.150738385E1
1.229729188E1,-1.113489487E1,-1.131047974E0,-1.413959656E0,1.128115398E1
1.230731787E1,-1.088102280E1,-1.210233307E0,-6.210585022E-1,1.096572093E1
1.231734287E1,-1.059436890E1,-1.369801483E0,1.646575928E-2,1.068256896E1
1.232736887E1,-9.634714508E0,-1.565444641E0,2.639012146E-1,9.764629252E0
1.233739488E1,-8.104297028E0,-1.703906708E0,3.574566650E-1,8.289191978E0
1.234741987E1,-6.358477478E0,-1.672322388E0,1.829196167E-1,6.577260645E0
1.235744587E1,-5.208119659E0,-1.545985107E0,1.371148682E-1,5.434462331E0
1.236747187E1,-5.063520355E0,-1.388811951E0,1.601669312E-1,5.252969681E0
1.237749688E1,-5.964197388E0,-1.214873657E0,2.454895020E-2,6.086720885E0
1.238752287E1,-7.496111755E0,-1.253193970E0,1.181044006E-1,7.601061454E0
1.239754887E1,-8.922196198E0,-1.471440125E0,3.402424622E-1,9.049115203E0
1.240757387E1,-9.585766296E0,-1.527423706E0,4.532574463E-1,9.717272301E0
1.241759988E1,-9.549242249E0,-1.472038879E0,7.427554321E-1,9.690542380E0
1.242762587E1,-9.309740295E0,-1.378483429E0,8.830137634E-1,9.452576064E0
1.243765087E1,-8.993597717E0,-1.271755371E0,5.641767883E-1,9.100574546E0
1.244767687E1,-8.542735291E0,-1.138083344E0,1.206491089E-1,8.619055409E0
1.245770188E1,-7.738308105E0,-8.803193665E-1,-4.644841003E-1,7.802058703E0
1.246772787E1,-6.805148621E0,-6.803352356E-1,-1.074615326E0,6.922983597E0
1.247775387E1,-5.786516876E0,-6.762936401E-1,-1.603914642E0,6.042656107E0
1.248777887E1,-4.744084625E0,-6.753955078E-1,-1.633103943E0,5.062561260E0
1.249780488E1,-4.241878967E0,-6.911128235E-1,-1.211580505E0,4.465322097E0
1.250783087E1,-4.251309357E0,-7.882608032E-1,-6.765930176E-1,4.376387146E0
1.251785587E1,-4.655917969E0,-9.114546204E-1,-6.316864014E-2,4.744714105E0
1.252788187E1,-5.171445923E0,-9.621990967E-1,4.291575623E-1,5.277675269E0
1.253790787E1,-5.745651855E0,-9.967771912E-1,7.770341492E-1,5.883014710E0
1.254793287E1,-6.563551025E0,-1.174906769E0,1.145268402E0,6.765519026E0
1.255795887E1,-7.490273895E0,-1.471290436E0,1.352736969E0,7.752341316E0
1.256798387E1,-8.966054993E0,-1.880090332E0,1.201551361E0,9.239513378E0
1.257800987E1,-1.140298737E1,-2.190544739E0,7.746391296E-1,1.163729663E1
1.258803588E1,-1.381671799E1,-2.355052643E0,4.737648010E-1,1.402399451E1
1.259806087E1,-1.592583206E1,-2.565964050E0,-1.558259583E-1,1.613197384E1
1.260808687E1,-1.757929367E1,-2.420316925E0,-1.111438751E0,1.777989865E1
1.261811287E1,-1.938543777E1,-2.364782410E0,-1.230291595E0,1.956785658E1
1.262813787E1,-2.084924377E1,-2.276466064E0,-7.993377686E-1,2.098838261E1
1.263816387E1,-2.264161652E1,-2.345173187E0,4.550537109E-2,2.276279215E1
1.264818987E1,-2.505265274E1,-2.790497131E0,1.238374786E0,2.523798438E1
1.265821487E1,-2.718526794E1,-2.944526825E0,2.509082336E0,2.745914284E1
1.266824088E1,-2.945035767E1,-2.789748688E0,3.632047119E0,2.980432906E1
1.267826587E1,-3.183968903E1,-2.628533936E0,4.276906128E0,3.223300969E1
1.268829187E1,-3.289604233E1,-2.900668030E0,4.004322968E0,3.326556896E1
1.269831787E1,-3.183040833E1,-3.242706757E0,2.730022888E0,3.211141645E1
1.270834288E1,-3.014536240E1,-3.863016815E0,1.899849243E0,3.045119374E1
1.271836887E1,-2.790961166E1,-4.205803986E0,1.548829193E0,2.826719092E1
1.272839487E1,-2.611813705E1,-4.588707733E0,2.189047852E0,2.660836809E1
1.273841987E1,-2.469414825E1,-4.916526031E0,4.515509949E0,2.558052025E1
1.274844588E1,-2.243729141E1,-4.668342133E0,6.768025818E0,2.389626828E1
1.275847187E1,-1.974289444E1,-4.403692474E0,7.101232910E0,2.143832776E1
1.276849687E1,-1.626278137E1,-4.148024139E0,5.879323883E0,1.778343644E1
1.277852287E1,-1.233494934E1,-3.667373657E0,4.088298340E0,1.350239935E1
1.278854788E1,-8.500972137E0,-3.223546600E0,1.899549866E0,9.287952932E0
1.279857387E1,-4.760999451E0,-2.600841522E0,-6.526428223E-2,5.425472497E0
1.280859987E1,-1.796564026E0,-2.115401001E0,-1.186732178E0,3.018426238E0
1.281862487E1,4.465214539E-1,-2.099533997E0,-1.299896851E0,2.509413524E0
1.282865088E1,2.741099854E0,-1.991458740E0,-1.246457977E0,3.610151494E0
1.283867687E1,4.664749603E0,-1.882335663E0,-1.163680115E0,5.163063801E0
1.284870187E1,5.315147095E0,-2.542163544E0,1.886077881E-1,5.894824596E0
1.285872787E1,5.310656433E0,-3.298091583E0,1.379830627E0,6.401906935E0
1.286875388E1,4.947960663E0,-3.448977814E0,1.372046814E0,6.185489079E0
1.287877887E1,4.280049591E0,-3.256029053E0,6.644682312E-1,5.418677673E0
1.288880487E1,3.712579651E0,-2.829116821E0,-2.285746765E-1,4.673263960E0
1.289882987E1,2.888842621E0,-2.461331635E0,-1.033899994E0,3.933511701E0
1.290885588E1,2.433639221E0,-2.101929016E0,-1.906585236E0,3.738418477E0
1.291888187E1,2.432890778E0,-1.663790131E0,-2.397564240E0,3.799403824E0
1.292890687E1,1.911974030E0,-1.404529266E0,-2.327958984E0,3.323814102E0
1.293893287E1,1.008602600E0,-1.239123230E0,-2.056423645E0,2.604147421E0
1.294895887E1,-7.095245361E-2,-9.722282410E-1,-1.587598572E0,1.862989863E0
1.295898387E1,-7.164102173E-1,-7.141648865E-1,-1.023870850E0,1.439300733E0
1.296900987E1,-9.575587463E-1,-3.622467041E-1,-5.662724304E-1,1.169959783E0
1.297903587E1,-1.232985992E0,-1.139131165E-1,-1.469943237E-1,1.246931428E0
1.298906087E1,-2.069745941E0,2.529739380E-2,4.849914551E-2,2.070468639E0
1.299908688E1,-3.319646759E0,2.016307068E-1,-1.116677856E-1,3.327638688E0
1.300911187E1,-3.605252838E0,6.786886597E-1,-5.906716919E-1,3.715825530E0
1.301913787E1,-2.963986359E0,1.016685791E0,-9.668394470E-1,3.279274866E0
1.302916387E1,-2.405946808E0,1.081800385E0,-1.247655487E0,2.918135763E0
1.303918888E1,-1.748214569E0,1.100960541E0,-1.590742035E0,2.607456330E0
1.304921487E1,-1.314716034E0,1.045725403E0,-1.817221069E0,2.474734790E0
1.305924087E1,-1.393003235E0,8.672964478E-1,-1.596879272E0,2.289690929E0
1.306926587E1,-1.700912933E0,8.722361755E-1,-1.285676422E0,2.303663303E0
1.307929188E1,-2.210603027E0,1.016685791E0,-9.077124023E-1,2.596990094E0
1.308931787E1,-2.788850555E0,1.150507507E0,-2.643502808E-1,3.028404863E0
1.309934287E1,-3.221001892E0,1.294208679E0,-1.960922241E-2,3.471341789E0
1.310936887E1,-3.671714630E0,1.244811401E0,1.136137390E-1,3.878653353E0
1.311939388E1,-3.514990540E0,1.172511749E0,2.246827698E-1,3.712199435E0
1.312941987E1,-3.000211029E0,9.966275024E-1,4.561015320E-1,3.194144832E0
1.313944587E1,-2.640658722E0,5.388793945E-1,7.650590515E-1,2.801568282E0
1.314947087E1,-2.453697510E0,8.592132568E-2,1.091530151E0,2.686903797E0
1.315949617E1,-2.930156708E0,-3.559597778E-1,1.556912384E0,3.337139773E0
1.316952217E1,-4.154760132E0,-5.400769043E-1,1.826801147E0,4.570658295E0
1.317954717E1,-6.213429108E0,-2.516267395E-1,2.109712830E0,6.566651012E0
1.318957317E1,-9.445208588E0,2.965333557E-1,2.581232300E0,9.796053158E0
1.319959917E1,-1.255993149E1,1.045875092E0,2.898722076E0,1.293245233E1
1.320962417E1,-1.446995956E1,1.737586670E0,2.894081726E0,1.485848735E1
1.321965017E1,-1.552930664E1,2.187550964E0,2.753673706E0,1.592254574E1
1.322967517E1,-1.661080765E1,2.957100677E0,2.978506165E0,1.713285948E1
1.323970117E1,-1.880419647E1,4.052073669E0,4.640200653E0,1.978758621E1
1.324972717E1,-2.285447388E1,4.343816986E0,7.150031433E0,2.433759790E1
1.325975217E1,-2.853635834E1,2.219734039E0,8.359216919E0,2.981824062E1
1.326977817E1,-3.395598816E1,-1.446292419E0,7.279961243E0,3.475771467E1
1.327980417E1,-3.710334320E1,-4.168980560E0,5.065316620E0,3.767885227E1
1.328982917E1,-3.662598587E1,-3.577111359E0,2.220332794E0,3.686717299E1
1.329985517E1,-3.427108292E1,-1.648970947E0,1.586700439E-2,3.431073420E1
1.330988117E1,-3.092269592E1,-1.509760437E0,-5.281018066E-1,3.096403383E1
1.331990617E1,-2.644400940E1,-3.138373718E0,1.975891113E-2,2.662959656E1
1.332993217E1,-2.076931000E1,-4.430187378E0,1.494342499E0,2.128905488E1
1.333995717E1,-1.550550613E1,-4.506079559E0,4.303850098E0,1.671073305E1
1.334998317E1,-1.223256226E1,-4.561763763E0,7.601492615E0,1.510721543E1
1.336000917E1,-1.152243896E1,-5.664670258E0,8.421637115E0,1.535509884E1
1.337003417E1,-1.250424728E1,-6.621480560E0,6.458619232E0,1.555358375E1
1.338006017E1,-1.307516006E1,-6.544839935E0,3.277733917E0,1.498460143E1
1.339008617E1,-1.232132767E1,-5.836063843E0,3.543132019E-1,1.363819249E1
1.340011117E1,-1.084689377E1,-5.699697418E0,-2.032323761E0,1.242062780E1
1.341013717E1,-8.816665649E0,-5.947881317E0,-3.519481201E0,1.120257262E1
1.342016317E1,-5.816753998E0,-4.477638702E0,-5.366041260E0,9.092759439E0
1.343018817E1,-3.811972961E0,-1.798509979E0,-8.854387207E0,9.806423855E0
1.344021417E1,-3.260070648E0,-1.145418091E0,-8.266559601E0,8.959690333E0
1.345023917E1,-2.775228882E0,-1.338217163E0,-4.500092010E0,5.453764629E0
1.346026517E1,-2.261497192E0,-1.749561768E0,-1.491648102E0,3.224957362E0
1.347029117E1,-1.742975464E0,-2.004182281E0,3.016227722E-1,2.673141669E0
1.348031617E1,-1.468596039E0,-1.925895081E0,2.095043335E0,3.202351130E0
1.349034217E1,-1.779050446E0,-1.766177216E0,3.678300934E0,4.451325668E0
1.350036817E1,-2.489323425E0,-1.651665344E0,4.370611267E0,5.294050658E0
1.351039317E1,-3.316353607E0,-1.633852386E0,4.102668457E0,5.522640975E0
1.352041917E1,-4.198319550E0,-1.679956512E0,3.290756836E0,5.592604177E0
1.353044517E1,-5.077291718E0,-1.725611572E0,2.417772217E0,5.882367633E0
1.354047017E1,-5.981261902E0,-1.745969238E0,1.404978333E0,6.387320771E0
1.355049617E1,-6.798412628E0,-1.782044220E0,3.761677551E-1,7.038153028E0
1.356052117E1,-7.640261993E0,-2.137255554E0,-3.504212952E-1,7.941300883E0
1.357054717E1,-8.520132294E0,-2.640209656E0,-8.484356689E-1,8.960089532E0
1.358057317E1,-9.152567139E0,-3.242856445E0,-7.650590515E-1,9.740170353E0
1.359059817E1,-9.873018951E0,-3.863615570E0,-5.459147644E-1,1.061612224E1
1.360062417E1,-1.078162949E1,-4.359683990E0,-5.075944519E-1,1.164079168E1
1.361065017E1,-1.179008240E1,-4.725523224E0,-3.040177917E-1,1.270547282E1
1.362067517E1,-1.265139130E1,-4.623136139E0,1.625619507E-1,1.347061676E1
1.363070117E1,-1.328337708E1,-4.198319550E0,4.911286926E-1,1.393969874E1
1.364072717E1,-1.341989319E1,-3.797902222E0,5.420228577E-1,1.395748485E1
1.365075217E1,-1.312934738E1,-3.499273224E0,5.242098999E-1,1.359777452E1
1.366077817E1,-1.240245895E1,-3.163072357E0,5.777984619E-1,1.281248867E1
1.367080417E1,-1.113684082E1,-2.792443085E0,1.020577698E0,1.152686170E1
1.368082917E1,-9.670639801E0,-2.473755798E0,1.629661102E0,1.011417506E1
1.369085517E1,-8.568182373E0,-2.329605560E0,2.445913696E0,9.209956843E0
1.370088017E1,-7.801027679E0,-2.251468048E0,3.239413605E0,8.741792821E0
1.371090617E1,-7.499404907E0,-2.105222168E0,3.920497284E0,8.720282868E0
1.372093217E1,-7.664511566E0,-1.984872437E0,4.213438110E0,8.968696497E0
1.373095717E1,-7.951764221E0,-1.902992706E0,4.117337952E0,9.154474713E0
1.374098317E1,-8.411458282E0,-1.851200409E0,3.716770935E0,9.380509558E0
1.375100917E1,-9.162596283E0,-1.910776520E0,3.173999634E0,9.883243963E0
1.376103417E1,-9.705966339E0,-1.963317261E0,2.535876617E0,1.022208724E1
1.377106017E1,-9.799671478E0,-1.834884338E0,1.746118927E0,1.012172381E1
1.378108617E1,-9.614805908E0,-1.649270325E0,8.991801453E-1,9.796586660E0
1.379111117E1,-9.452842712E0,-1.641037445E0,7.933502197E-2,9.594557483E0
1.380113717E1,-9.419761505E0,-1.833686829E0,-8.695417786E-1,9.635892128E0
1.381116217E1,-9.370364227E0,-1.997446289E0,-1.595232697E0,9.712789753E0
1.382118817E1,-9.360484772E0,-2.060764618E0,-1.653012543E0,9.726143966E0
1.383121417E1,-9.678573303E0,-2.243085480E0,-1.112636261E0,9.997208266E0
1.384123917E1,-1.022987686E1,-2.395917664E0,-4.433779907E-1,1.051605373E1
1.385126517E1,-1.065259781E1,-2.372865601E0,4.535568237E-2,1.091377058E1
1.386129117E1,-1.071067703E1,-2.108515320E0,3.417393494E-1,1.092159444E1
1.387131617E1,-1.073926758E1,-1.728305969E0,7.731422424E-1,1.090489150E1
1.388134217E1,-1.054706726E1,-1.370998993E0,1.358125763E0,1.072216264E1
1.389136817E1,-1.023751099E1,-1.095272369E0,1.714235229E0,1.043766522E1
1.390139317E1,-9.883946228E0,-8.005352783E-1,1.917362823E0,1.009997673E1
1.391141917E1,-9.512418823E0,-4.679269409E-1,2.108814697E0,9.754597220E0
1.392144417E1,-9.272168427E0,-2.028282166E-1,2.280058594E0,9.550545210E0
1.393147017E1,-9.346563721E0,-1.149609375E-1,2.358944550E0,9.640336550E0
1.394149617E1,-9.532926178E0,-1.526824951E-1,2.445314941E0,9.842741418E0
1.395152117E1,-9.688452759E0,-2.733316040E-1,2.734962616E0,1.007079180E1
1.396154717E1,-9.595645752E0,-2.480342102E-1,3.456162872E0,1.020210763E1
1.397157317E1,-9.044342194E0,-2.514770508E-2,4.098477173E0,9.929666322E0
1.398159817E1,-8.261470184E0,1.832189941E-1,4.259991302E0,9.296934156E0
1.399162417E1,-7.600594482E0,3.002755737E-1,3.868704987E0,8.533819788E0
1.400165017E1,-7.269033966E0,1.330732727E-1,3.273842010E0,7.973368473E0
1.401167517E1,-7.063661041E0,-1.300794983E-1,2.639461212E0,7.541815662E0
1.402170117E1,-6.779851227E0,-2.251318359E-1,1.852098541E0,7.031879977E0
1.403172617E1,-6.526128845E0,-1.306782532E-1,8.500822449E-1,6.582558343E0
1.404175217E1,-6.246210938E0,2.589614868E-2,-2.398013306E-1,6.250866049E0
1.405177817E1,-5.904321899E0,8.412506104E-2,-1.118773499E0,6.009970737E0
1.406180317E1,-5.455106049E0,2.351609802E-1,-1.617236938E0,5.694641165E0
1.407182917E1,-5.226381683E0,3.983216858E-1,-1.978286133E0,5.602440690E0
1.408185517E1,-5.219795380E0,4.221221924E-1,-2.214644623E0,5.685868602E0
1.409188017E1,-5.116959229E0,4.399351501E-1,-2.185605011E0,5.581548526E0
1.410190617E1,-5.234015808E0,5.147795105E-1,-1.660496979E0,5.515176302E0
1.411193217E1,-5.526208191E0,6.372248840E-1,-1.122665405E0,5.674981069E0
1.412195717E1,-5.724845123E0,7.243437195E-1,-9.663903809E-1,5.850849159E0
1.413198317E1,-5.825136566E0,7.596702576E-1,-7.961943054E-1,5.928173436E0
1.414200817E1,-5.766009521E0,8.508306885E-1,-6.032455444E-1,5.859580518E0
1.415203417E1,-5.749693451E0,8.354127502E-1,-5.216651917E-1,5.833440136E0
1.416206050E1,-5.799240417E0,8.045768738E-1,-5.864804077E-1,5.884088089E0
1.417208550E1,-6.191125488E0,7.701484680E-1,-5.111869812E-1,6.259750443E0
1.418211150E1,-6.701863403E0,7.524851990E-1,-5.282514954E-1,6.764632783E0
1.419213750E1,-7.403005371E0,5.754034424E-1,-4.553530884E-1,7.439282498E0
1.420216250E1,-8.358468475E0,2.758763123E-1,-2.113604736E-1,8.365690422E0
1.421218850E1,-9.364077301E0,1.302291870E-2,4.640350342E-3,9.364087506E0
1.422221450E1,-1.063852707E1,-5.906716919E-1,3.951782227E-1,1.066223790E1
1.423223950E1,-1.208347229E1,-1.615290985E0,6.968009949E-1,1.221085579E1
1.424226550E1,-1.390473495E1,-2.974015503E0,1.035696259E0,1.425689620E1
1.425229050E1,-1.594798599E1,-4.158202972E0,1.318607941E0,1.653383307E1
1.426231650E1,-1.837054825E1,-4.789589996E0,1.473086700E0,1.904172260E1
1.427234250E1,-2.125100830E1,-5.224585419E0,1.336271210E0,2.192458135E1
1.428236750E1,-2.440195587E1,-5.471122742E0,1.135838013E0,2.503355273E1
1.429239350E1,-2.741863266E1,-5.287005615E0,9.107061768E-1,2.793856172E1
1.430241950E1,-2.968521927E1,-5.232369232E0,5.730084229E-1,3.014827142E1
1.431244450E1,-3.063888611E1,-5.564528503E0,-3.715274048E-1,3.114230807E1
1.432247050E1,-3.108166534E1,-5.920188904E0,-1.631756744E0,3.168250601E1
1.433249650E1,-3.159015793E1,-6.447392578E0,-2.816093903E0,3.236413654E1
1.434252150E1,-3.133149582E1,-7.248526611E0,-2.458188171E0,3.225285193E1
1.435254750E1,-3.030567902E1,-8.242010651E0,-3.673361206E-1,3.140859526E1
1.436257350E1,-2.900488403E1,-9.210496674E0,1.776655426E0,3.048398024E1
1.437259850E1,-2.659235092E1,-9.139095154E0,3.228336639E0,2.830368077E1
1.438262450E1,-2.348601059E1,-8.434360657E0,4.418062592E0,2.534265989E1
1.439265050E1,-1.993180161E1,-7.557035065E0,4.936135254E0,2.188037763E1
1.440267550E1,-1.611922989E1,-6.262077942E0,4.426445160E0,1.785039521E1
1.441270150E1,-1.265154099E1,-4.673581238E0,3.464844818E0,1.392512120E1
1.442272650E1,-1.000444565E1,-3.012036438E0,2.692001953E0,1.078926183E1
1.443275250E1,-7.855514374E0,-1.547781372E0,1.942360840E0,8.238780182E0
1.444277850E1,-6.137985992E0,-4.254153442E-1,1.281634827E0,6.284778285E0
1.445280350E1,-4.921615448E0,2.580633545E-1,8.605604553E-1,5.002945094E0
1.446282950E1,-4.246818695E0,5.477110291E-1,7.033872986E-1,4.339378998E0
1.447285550E1,-4.027973785E0,5.794450378E-1,6.667135620E-1,4.123692076E0
1.448288050E1,-3.835923157E0,4.646337891E-1,1.083746338E-1,3.865480059E0
1.449290650E1,-3.228935394E0,3.917353821E-1,-3.324586487E-1,3.269557943E0
1.450293250E1,-2.337988129E0,4.331991577E-1,-3.507206726E-1,2.403508891E0
1.451295750E1,-1.513352966E0,5.596861267E-1,-4.191284180E-1,1.667079600E0
1.452298350E1,-6.042933655E-1,6.619235229E-1,-5.664221191E-1,1.060258100E0
1.453300850E1,4.448748779E-1,8.337661743E-1,-6.195616150E-1,1.130016055E0
1.454303450E1,1.363065491E0,9.421408081E-1,-6.740483093E-1,1.788831450E0
1.455306050E1,2.121388550E0,9.273216248E-1,-5.168751526E-1,2.372208823E0
1.456308550E1,2.336491241E0,1.038989410E0,-2.160008240E-1,2.566193031E0
1.457311150E1,2.178120575E0,1.293759613E0,-2.378553772E-1,2.544523208E0
1.458313750E1,1.793869629E0,1.530866547E0,-4.483177185E-1,2.400522736E0
1.459316250E1,1.040336609E0,1.701511688E0,-7.816744995E-1,2.142068465E0
1.460318850E1,2.324665833E-1,1.880988464E0,-1.060245209E0,2.171699385E0
1.461321450E1,-3.918850708E-1,2.108066254E0,-1.291813660E0,2.503257831E0
1.462323950E1,-1.009949799E0,2.168690186E0,-1.442699890E0,2.793671185E0
1.463326550E1,-1.402433624E0,2.033072205E0,-1.567540283E0,2.925300873E0
1.464329050E1,-1.343156891E0,1.889371033E0,-1.756148071E0,2.908238192E0
1.465331650E1,-1.154100037E0,1.649270325E0,-1.864223328E0,2.743604949E0
1.466334250E1,-7.985893250E-1,1.248553619E0,-2.007026367E0,2.494952082E0
1.467336750E1,-4.167333984E-1,9.981243896E-1,-2.013462982E0,2.285596684E0
1.468339350E1,-2.710862732E-1,9.624984741E-1,-1.830992432E0,2.086246478E0
1.469341950E1,-5.095404053E-1,1.004411316E0,-1.646875305E0,1.995162095E0
1.470344450E1,-9.627978516E-1,1.009051666E0,-1.452279968E0,2.013524789E0
1.471347050E1,-1.369651794E0,1.077459412E0,-1.265468445E0,2.153665528E0
1.472349650E1,-1.934427338E0,1.134939880E0,-1.018631744E0,2.463271866E0
1.473352150E1,-2.738704834E0,1.074914703E0,-5.804928589E-1,2.998819392E0
1.474354750E1,-3.447929993E0,9.997709656E-1,-2.642005920E-1,3.599661813E0
1.475357250E1,-4.073479156E0,1.030157776E0,3.308120728E-2,4.201851003E0
1.476359850E1,-4.785997467E0,9.952803040E-1,2.686912537E-1,4.895768543E0
1.477362450E1,-5.618117065E0,8.780740356E-1,2.478845215E-1,5.691722069E0
1.478364950E1,-6.543941803E0,6.962022400E-1,-5.403762817E-2,6.581093522E0
1.479367550E1,-7.194189606E0,5.779481506E-1,-2.408491516E-1,7.221384664E0
1.480370150E1,-7.554041290E0,4.755610657E-1,-4.128414917E-1,7.580246450E0
1.481372650E1,-7.783663788E0,2.067201233E-1,-5.966592407E-1,7.809235393E0
1.482375250E1,-8.178093567E0,-2.571652222E-1,-6.140231323E-1,8.205143067E0
1.483377850E1,-9.802066498E0,-9.081614685E-1,-5.043013000E-1,9.856956157E0
1.484380350E1,-1.231279541E1,-1.877096558E0,-4.044589233E-1,1.246162146E1
1.485382950E1,-1.454016357E1,-3.376229095E0,-2.880010986E-1,1.492977643E1
1.486385450E1,-1.671409286E1,-5.144501953E0,-1.088237000E-1,1.748824300E1
1.487388050E1,-1.827519653E1,-6.756350098E0,-8.053253174E-2,1.948429009E1
1.488390650E1,-1.840437790E1,-7.698640594E0,1.591191101E-1,1.995032611E1
1.489393150E1,-1.754636215E1,-7.868387604E0,1.337019653E0,1.927625404E1
1.490395750E1,-1.724803253E1,-8.201594696E0,3.077001343E0,1.934499209E1
1.491398350E1,-1.795875458E1,-9.539063416E0,4.477938080E0,2.082216430E1
1.492400850E1,-1.859118942E1,-1.033091675E1,5.385051727E0,2.193989396E1
1.493403450E1,-1.939636505E1,-9.646539917E0,5.572012939E0,2.236787960E1
1.494406050E1,-2.054627380E1,-8.181087341E0,5.635031891E0,2.282176903E1
1.495408550E1,-2.141701309E1,-6.465953979E0,5.492079163E0,2.303605748E1
1.496411150E1,-2.180949692E1,-4.897365875E0,5.087769928E0,2.292430481E1
1.497413750E1,-2.178734299E1,-3.595373383E0,4.722978516E0,2.258144261E1
1.498416250E1,-2.146132095E1,-2.570305023E0,4.287084961E0,2.203574057E1
1.499418850E1,-2.078083603E1,-1.913620605E0,3.805536346E0,2.121290166E1
1.500421450E1,-1.934382431E1,-1.493893433E0,3.260220337E0,1.967344132E1
1.501423950E1,-1.734547989E1,-1.113384705E0,2.573747864E0,1.757069936E1
1.502426550E1,-1.557436295E1,-7.232958984E-1,1.638343048E0,1.567699289E1
1.503429050E1,-1.390473495E1,-2.727328491E-1,1.609153748E-1,1.390834034E1
1.504431650E1,-1.224169327E1,1.839674377E-1,-1.642384644E0,1.235274566E1
1.505434250E1,-1.081321381E1,4.878355408E-1,-3.440595245E0,1.135787269E1
1.506436750E1,-9.732461243E0,5.403762817E-1,-4.617597656E0,1.078587115E1
1.507439350E1,-8.924890594E0,4.813989258E-1,-4.984185333E0,1.023364649E1
1.508441950E1,-8.309669952E0,3.547622681E-1,-4.523892517E0,9.467949857E0
1.509444450E1,-7.690707092E0,2.004331970E-1,-3.414848785E0,8.417145673E0
1.510447050E1,-6.944808197E0,1.272354126E-1,-2.103575592E0,7.257518861E0
1.511449650E1,-6.209986267E0,1.071771240E-1,-7.086264038E-1,6.251205304E0
1.512452150E1,-5.729036407E0,1.032852173E-2,4.671784973E-1,5.748062333E0
1.513454750E1,-5.557193756E0,-1.661544800E-1,1.216969299E0,5.691311275E0
1.514457250E1,-5.612728271E0,-4.275109863E-1,1.718276825E0,5.885402241E0
1.515459850E1,-5.597759399E0,-6.331832886E-1,1.734443207E0,5.894414696E0
1.516462450E1,-5.636977844E0,-8.479866028E-1,1.319057007E0,5.851026567E0
1.517464950E1,-5.921985168E0,-1.072220306E0,1.112187195E0,6.120173615E0
1.518467550E1,-6.373296661E0,-1.274599457E0,9.135502625E-1,6.563389992E0
1.519470150E1,-7.060966644E0,-1.431622925E0,5.381309509E-1,7.224706158E0
1.520472650E1,-8.139473877E0,-1.662143555E0,3.182382202E-1,8.313545077E0
1.521475250E1,-9.085356903E0,-2.096091156E0,2.923420715E-1,9.328599685E0
1.522477850E1,-9.592053223E0,-2.434537354E0,3.198847961E-1,9.901352606E0
1.523480350E1,-9.919572144E0,-2.784060516E0,4.137396240E-1,1.031116312E1
1.524482950E1,-1.000115250E1,-2.960543518E0,5.813909912E-1,1.044633355E1
1.525485550E1,-9.811347198E0,-2.922971649E0,7.438032532E-1,1.026447955E1
1.526488050E1,-9.547296295E0,-2.811752930E0,8.502319336E-1,9.988979699E0
1.527490650E1,-9.363029480E0,-2.582878876E0,7.903564453E-1,9.744857497E0
1.528493150E1,-9.279203796E0,-2.352208557E0,6.110293579E-1,9.592177285E0
1.529495750E1,-9.303004303E0,-2.111658783E0,4.430786133E-1,9.549937724E0
1.530498350E1,-9.241182861E0,-1.778302002E0,4.863386536E-1,9.423287323E0
1.531500850E1,-9.070986786E0,-1.539099426E0,8.650511169E-1,9.241208890E0
1.532503450E1,-9.022487640E0,-1.473685455E0,1.210382996E0,9.221825147E0
1.533506050E1,-8.941805420E0,-1.373992767E0,1.519340515E0,9.173447329E0
1.534508550E1,-8.786727905E0,-1.353635101E0,1.726958771E0,9.056561260E0
1.535511150E1,-8.689579926E0,-1.376836853E0,1.688488770E0,8.958541920E0
1.536513750E1,-8.637488251E0,-1.374890900E0,1.650767212E0,8.900649451E0
1.537516250E1,-8.471184082E0,-1.330283661E0,1.584455109E0,8.720155524E0
1.538518850E1,-8.333919525E0,-1.266216888E0,1.437610474E0,8.551271469E0
1.539521450E1,-8.212072906E0,-1.339863739E0,1.423988800E0,8.441630196E0
1.540523950E1,-7.904163208E0,-1.421893158E0,1.301842804E0,8.135869398E0
1.541526550E1,-7.672145691E0,-1.548380127E0,1.131497040E0,7.908197397E0
1.542529050E1,-7.525151367E0,-1.691482544E0,8.773255920E-1,7.762648806E0
1.543531650E1,-7.360344086E0,-1.834734650E0,6.240522766E-1,7.611199481E0
1.544534250E1,-7.357200623E0,-2.013912048E0,6.056405640E-1,7.651865343E0
1.545536750E1,-7.453899536E0,-2.121089172E0,5.801934814E-1,7.771503204E0
1.546539350E1,-7.633975067E0,-2.126028900E0,8.291258240E-1,7.967748982E0
1.547541950E1,-7.850125580E0,-2.041903839E0,1.002315674E0,8.173033685E0
1.548544450E1,-8.358169098E0,-2.053579559E0,9.990225220E-1,8.664538399E0
1.549547050E1,-9.036857758E0,-1.964514771E0,1.050066376E0,9.307349559E0
1.550549650E1,-9.394464111E0,-1.780547333E0,1.113534393E0,9.626331783E0
1.551552150E1,-9.669442291E0,-1.718576202E0,1.233584747E0,9.898148802E0
1.552554750E1,-9.945168915E0,-1.752854919E0,1.343755646E0,1.018747095E1
1.553557350E1,-1.015608032E1,-1.758094025E0,1.452878723E0,1.040902102E1
1.554559850E1,-1.034588562E1,-1.698368225E0,1.473086700E0,1.058734095E1
1.555562450E1,-1.050096313E1,-1.626966705E0,1.416204987E0,1.072020914E1
1.556564950E1,-1.068223618E1,-1.545685730E0,1.318757629E0,1.087374985E1
1.557567550E1,-1.099688187E1,-1.491947479E0,1.292562103E0,1.117264673E1
1.558570150E1,-1.140927429E1,-1.553020477E0,1.266665955E0,1.158394817E1
1.559572650E1,-1.206341400E1,-1.858535156E0,1.125359802E0,1.225750974E1
1.560575250E1,-1.276829819E1,-2.362986145E0,1.038839722E0,1.302660086E1
1.561577850E1,-1.336166428E1,-2.895728302E0,9.846524048E-1,1.370725556E1
1.562580350E1,-1.336555618E1,-3.178490295E0,1.063837738E0,1.377942827E1
1.563582950E1,-1.272728348E1,-3.098556519E0,1.241967316E0,1.315778401E1
1.564585550E1,-1.184067719E1,-2.795436859E0,1.617236938E0,1.227320491E1
1.565588050E1,-1.092997101E1,-2.562221832E0,2.193837891E0,1.143862630E1
1.566590650E1,-1.019769379E1,-2.406695251E0,2.631378021E0,1.080320744E1
1.567593250E1,-9.720785522E0,-2.239642639E0,2.800226898E0,1.036102992E1
1.568595750E1,-9.283095703E0,-1.936672668E0,2.932851105E0,9.926136331E0
1.569598350E1,-8.870104523E0,-1.728904724E0,2.781515808E0,9.455405649E0
1.570600850E1,-8.590186615E0,-1.582509155E0,2.588716736E0,9.110274181E0
1.571603450E1,-8.249794464E0,-1.373543701E0,2.362088013E0,8.690523044E0
1.572606050E1,-7.965385895E0,-1.058748322E0,2.064806213E0,8.296489930E0
1.573608550E1,-7.812703400E0,-8.074209595E-1,1.710193634E0,8.038347174E0
1.574611150E1,-7.506440277E0,-7.099736023E-1,1.332978058E0,7.656862194E0
1.575613750E1,-7.086114349E0,-6.366261292E-1,9.758207703E-1,7.181262812E0
1.576616250E1,-6.588698730E0,-5.382806396E-1,7.442523193E-1,6.652413737E0
1.577618850E1,-5.936055908E0,-3.938310242E-1,5.132826233E-1,5.971207723E0
1.578621450E1,-5.375022583E0,-2.839595032E-1,2.001338196E-1,5.386237491E0
1.579623950E1,-5.086422729E0,-3.004252625E-1,1.311273193E-1,5.096974190E0
1.580626550E1,-4.818030853E0,-4.323010254E-1,1.104702759E-1,4.838647452E0
1.581629150E1,-4.784350891E0,-5.113366699E-1,1.442999268E-1,4.813761638E0
1.582631650E1,-4.907095642E0,-4.781057739E-1,2.357597351E-1,4.935965501E0
1.583634250E1,-5.032684479E0,-4.188290405E-1,2.636018372E-1,5.056957263E0
1.584636850E1,-5.073250122E0,-3.034190369E-1,3.107537842E-1,5.091806931E0
1.585639350E1,-4.944068756E0,-5.538482666E-2,2.911445618E-1,4.952943418E0
1.586641950E1,-5.031486969E0,2.032772827E-1,3.441343689E-1,5.047337044E0
1.587644450E1,-5.344336395E0,5.050497437E-1,3.239263916E-1,5.377911775E0
1.588647050E1,-5.665119324E0,8.391549683E-1,1.574725342E-1,5.729097277E0
1.589649650E1,-5.935756531E0,1.083746338E0,-1.676513672E-1,6.036208967E0
1.590652150E1,-6.111491089E0,1.346599731E0,-3.899391174E-1,6.270223814E0
1.591654750E1,-6.346502380E0,1.657952271E0,-6.530918884E-1,6.591921360E0
1.592657350E1,-6.618636475E0,1.663191376E0,-9.232800293E-1,6.886581180E0
1.593659850E1,-7.161856842E0,1.056952057E0,-1.149759064E0,7.330162821E0
1.594662450E1,-8.273894348E0,5.628295898E-2,-9.852511597E-1,8.332539547E0
1.595665050E1,-9.546098785E0,-9.220825195E-1,-4.912783813E-1,9.603103282E0
1.596667550E1,-1.104014191E1,-2.401755524E0,1.360670471E-1,1.129918923E1
1.597670150E1,-1.268746628E1,-4.463867340E0,5.135820007E-1,1.345963145E1
1.598672750E1,-1.462069611E1,-6.288273468E0,3.800596619E-1,1.592016279E1
1.599675250E1,-1.585847214E1,-7.464377747E0,3.742218018E-2,1.752739211E1
1.600677850E1,-1.602522537E1,-7.584727478E0,-2.151026917E-1,1.773082650E1
1.601680450E1,-1.679178131E1,-6.770570526E0,2.171983337E-1,1.810667612E1
1.602682950E1,-1.794902481E1,-5.584287415E0,7.039860535E-1,1.881083076E1
1.603685550E1,-1.960203735E1,-4.676275635E0,1.546883240E0,2.021138961E1
1.604688050E1,-2.196532288E1,-4.178560638E0,2.378404083E0,2.248538601E1
1.605690650E1,-2.459400650E1,-4.344864807E0,3.076252899E0,2.516359151E1
1.606693250E1,-2.744707352E1,-4.981191559E0,3.975133667E0,2.817722133E1
1.607695750E1,-2.991154861E1,-5.670508118E0,4.181554413E0,3.073012854E1
1.608698350E1,-3.144974991E1,-6.658753052E0,3.373235321E0,3.232343543E1
1.609700950E1,-3.218457184E1,-8.033045197E0,2.179318085E0,3.324343404E1
1.610703450E1,-3.202665024E1,-9.289232941E0,6.942562866E-1,3.335383285E1
1.611706050E1,-3.095248398E1,-1.075124268E1,-2.107617188E-1,3.276720775E1
1.612708650E1,-2.845717300E1,-1.149504593E1,4.387376404E-1,3.069428720E1
1.613711150E1,-2.543989746E1,-1.180175812E1,2.662962341E0,2.817021913E1
1.614713750E1,-2.278891022E1,-1.181268539E1,5.039869537E0,2.615863624E1
1.615716375E1,-2.011517029E1,-1.058898010E1,6.377637634E0,2.360976148E1
1.616718875E1,-1.811817307E1,-9.096882935E0,7.200925598E0,2.151452541E1
1.617721475E1,-1.629750916E1,-7.237150269E0,6.348598022E0,1.892854578E1
1.618724075E1,-1.417312683E1,-5.538033600E0,4.599036255E0,1.589649253E1
1.619726575E1,-1.128173950E1,-4.265080719E0,2.338437195E0,1.228563585E1
1.620729175E1,-8.339458008E0,-3.652404785E0,1.754351807E-1,9.105899081E0
1.621731675E1,-5.576503601E0,-3.300336914E0,-1.071621552E0,6.567951652E0
1.622734275E1,-2.719544678E0,-2.948418732E0,-1.755399628E0,4.378415709E0
1.623736875E1,-1.330732727E-1,-2.655328217E0,-2.298769684E0,3.514657664E0
1.624739375E1,1.909579010E0,-2.271975403E0,-2.784060516E0,4.069319008E0
1.625741975E1,3.477718048E0,-1.742077332E0,-2.784808960E0,4.783776457E0
1.626744575E1,4.798122253E0,-7.363188171E-1,-2.309098206E0,5.375507147E0
1.627747075E1,5.111570435E0,2.124082947E-1,-1.650767212E0,5.375714090E0
1.628749675E1,4.231849823E0,2.510279846E-1,-1.171463928E0,4.398169586E0
1.629752275E1,3.007545776E0,4.191284180E-2,-6.694079590E-1,3.081427477E0
1.630754775E1,2.020348663E0,2.404000854E-1,-3.095562744E-1,2.058015065E0
1.631757375E1,1.673070831E0,7.165599060E-1,-9.490264893E-2,1.822534120E0
1.632759975E1,1.291214905E0,7.524851990E-1,4.194277954E-1,1.552220854E0
1.633762475E1,1.047371979E0,3.144960022E-1,8.110134888E-1,1.361483998E0
1.634765075E1,1.400188293E0,-1.234931946E-1,1.148411865E0,1.815110916E0
1.635767575E1,1.927092590E0,-4.742138672E-1,1.476978607E0,2.473869530E0
1.636770175E1,2.288291473E0,-7.262896729E-1,1.624721375E0,2.898878076E0
1.637772775E1,2.273771667E0,-8.765771484E-1,1.604513397E0,2.917685441E0
1.638775275E1,1.898651733E0,-7.405101013E-1,1.440903625E0,2.495883986E0
1.639777875E1,1.455423431E0,-4.429289246E-1,1.202299805E0,1.939063748E0
1.640780475E1,8.729846191E-1,-1.755848694E-1,1.053359528E0,1.379310874E0
1.641782975E1,-1.122665405E-2,7.110214233E-2,7.072792053E-1,7.109327863E-1
1.642785575E1,-9.131011963E-1,3.493734741E-1,1.535806274E-1,9.896477294E-1
1.643788175E1,-1.874102783E0,4.218228149E-1,1.127156067E-1,1.924292217E0
1.644790675E1,-2.567011871E0,3.529660034E-1,-1.288819885E-1,2.594368038E0
1.645793275E1,-2.598147125E0,3.520678711E-1,-5.147795105E-1,2.671950264E0
1.646795875E1,-2.412383423E0,2.643502808E-1,-6.304888916E-1,2.507387304E0
1.647798375E1,-1.868564301E0,2.035766602E-1,-6.363267517E-1,1.984411181E0
1.648800975E1,-1.309776306E0,1.531315613E-1,-3.799099731E-1,1.372331897E0
