"Time (s)","Acceleration x (m/s^2)","Acceleration y (m/s^2)","Acceleration z (m/s^2)","Absolute acceleration (m/s^2)"
-1.384000061E-3,-9.841135254E0,-6.557264099E0,-8.333171082E-1,1.185495985E1
8.642000030E-3,-9.451495514E0,-6.429579620E0,-8.934919739E-1,1.146597529E1
1.866700000E-2,-8.584348755E0,-4.595294037E0,-3.809278564E0,1.045554274E1
2.869299997E-2,-7.563321991E0,-3.078797607E0,-7.365283813E0,1.099682863E1
3.871799994E-2,-7.294331360E0,-2.689457245E0,-7.489974518E0,1.079537718E1
4.874300002E-2,-7.810757446E0,-2.464175720E0,-6.089486847E0,1.020597589E1
5.876900000E-2,-7.839048615E0,-2.596201172E0,-3.530109100E0,8.980680039E0
6.879399996E-2,-7.819140015E0,-3.586990814E0,-6.038442993E-1,8.623808996E0
7.881999994E-2,-8.303682404E0,-4.412374420E0,1.231938171E-1,9.404007986E0
8.884500002E-2,-9.443562012E0,-4.773423615E0,-1.275796967E0,1.065805303E1
9.887099999E-2,-9.921817474E0,-4.806055756E0,-3.201542358E0,1.148000468E1
1.088960000E-1,-9.288634186E0,-4.524191895E0,-4.144431610E0,1.113208654E1
1.189219999E-1,-8.281079407E0,-4.404291229E0,-4.271966400E0,1.030649088E1
1.289470000E-1,-7.178921356E0,-4.630620575E0,-3.623814240E0,9.279632988E0
1.389730000E-1,-6.415059814E0,-5.027145996E0,-2.667003937E0,8.575435807E0
1.489980000E-1,-6.481671295E0,-5.062921600E0,-1.775607605E0,8.414155946E0
1.590239999E-1,-6.867568817E0,-5.145250397E0,-7.631130981E-1,8.615070789E0
1.690490000E-1,-6.735393677E0,-5.678142242E0,-7.414082336E-1,8.840617256E0
1.790750000E-1,-5.974675598E0,-6.099665680E0,-1.881886597E0,8.743235504E0
1.891000000E-1,-5.376369781E0,-5.965694275E0,-3.327131195E0,8.692793694E0
1.991259999E-1,-5.381608887E0,-5.631589050E0,-4.713847504E0,9.104771701E0
2.091510000E-1,-6.191873932E0,-5.133724365E0,-5.813610535E0,9.924338572E0
2.191770000E-1,-6.960226135E0,-4.771477661E0,-6.223907318E0,1.048564587E1
2.292020000E-1,-6.443650360E0,-4.594395905E0,-5.931265869E0,9.889844210E0
2.392269999E-1,-4.793781281E0,-4.890779572E0,-4.779411163E0,8.351217567E0
2.492530000E-1,-2.660567322E0,-4.846771088E0,-3.570225677E0,6.581513491E0
2.592780000E-1,-1.174308014E0,-4.701273651E0,-2.181713104E0,5.314211637E0
2.693040000E-1,-6.950047302E-1,-4.464765472E0,-2.621049500E-1,4.526130942E0
2.793289999E-1,-9.458830261E-1,-4.069138184E0,1.450483704E0,4.422271275E0
2.893550000E-1,-1.656006317E0,-4.560865631E0,2.208657074E0,5.331230468E0
2.993800000E-1,-2.849324799E0,-5.353766785E0,2.695744171E0,6.636904943E0
3.094060000E-1,-6.030359802E0,-7.608527985E0,4.962181091E0,1.090312701E1
3.194309999E-1,-7.823331299E0,-1.181313446E1,8.215366058E0,1.637824465E1
3.294570000E-1,-8.134683838E0,-1.287233185E1,6.093827820E0,1.640136415E1
3.394820000E-1,-6.894363098E0,-1.010144394E1,2.055375824E0,1.240145080E1
3.495080000E-1,-6.291117554E0,-7.996221771E0,-8.292755127E-2,1.017470391E1
3.595329999E-1,-7.895481262E0,-8.261769562E0,-3.929927673E0,1.208469247E1
3.695592083E-1,-1.064825684E1,-1.116213821E1,-1.205458237E1,1.957783592E1
3.795842084E-1,-1.060290115E1,-1.153785690E1,-1.563334030E1,2.213470090E1
3.896102083E-1,-8.377179565E0,-8.564140778E0,-9.041797485E0,1.500918874E1
3.996352083E-1,-7.692054291E0,-7.422315216E0,-6.460415497E0,1.248981308E1
4.096602083E-1,-7.164401550E0,-7.269632721E0,-5.332810364E0,1.151586192E1
4.196862084E-1,-6.944508820E0,-7.802674255E0,-3.820954285E0,1.112239272E1
4.297112083E-1,-6.083798676E0,-8.028704224E0,-2.559976501E0,1.039356424E1
4.397372083E-1,-4.549938354E0,-8.799002380E0,-2.014061737E0,1.010845322E1
4.497622083E-1,-3.058290253E0,-9.736353149E0,-2.578837280E0,1.052616329E1
4.597882084E-1,-1.780547333E0,-9.794132996E0,-2.427651672E0,1.024640828E1
4.698132083E-1,-4.204756165E-1,-9.560019836E0,-3.147953796E-1,9.574438634E0
4.798392083E-1,1.035546570E0,-9.260941772E0,2.018103333E0,9.534680921E0
4.898642083E-1,1.976639557E0,-9.439670105E0,3.630999298E0,1.030527203E1
4.998902084E-1,2.246977386E0,-9.672585754E0,4.877457275E0,1.106333639E1
5.099152083E-1,1.898352356E0,-9.588311005E0,5.706134033E0,1.131810122E1
5.199412083E-1,1.341809692E0,-8.934470673E0,5.863905945E0,1.077082227E1
5.299662083E-1,2.932402039E-1,-8.506959686E0,5.163213043E0,9.955557335E0
5.399922084E-1,-9.012757874E-1,-8.564290466E0,4.940775604E0,9.928274412E0
5.500172083E-1,-1.063837738E0,-7.945177917E0,3.240910492E0,8.646450352E0
5.600422083E-1,-1.577719116E0,-7.205416260E0,6.851252747E-1,7.407875386E0
5.700682083E-1,-1.706301727E0,-7.403454437E0,-1.165626068E0,7.686435280E0
5.800932084E-1,-2.139949951E0,-6.971303101E0,-7.861651611E-1,7.334610308E0
5.901192083E-1,-2.862647095E0,-6.206543427E0,3.870950317E-1,6.845858037E0
6.001442083E-1,-3.212619324E0,-5.891748047E0,9.394464111E-1,6.776147691E0
6.101702083E-1,-3.314407654E0,-6.051615601E0,8.833131409E-1,6.956119003E0
6.201952084E-1,-3.167862396E0,-6.004463654E0,9.538165283E-1,6.855559926E0
6.302212083E-1,-2.651735687E0,-5.526956635E0,1.070124664E0,6.222870607E0
6.402462083E-1,-2.110012207E0,-4.378844147E0,6.676116943E-1,4.906336000E0
6.502722083E-1,-1.698368225E0,-4.269571381E0,2.586621094E-1,4.602238639E0
6.602972083E-1,-1.263522491E0,-6.008804626E0,-3.859124908E0,7.252245665E0
6.703232083E-1,-1.244512024E0,-7.762407990E0,-6.139033813E0,9.974543806E0
6.803482083E-1,-2.299518127E0,-7.651338959E0,-1.966460724E0,8.227863590E0
6.903742083E-1,-2.777773590E0,-8.326285400E0,1.770667877E0,8.954234720E0
7.003992083E-1,-2.746189270E0,-9.298064575E0,2.699486389E0,1.006393497E1
7.104252083E-1,-2.827619934E0,-9.644144897E0,3.225342865E0,1.055498943E1
7.204502083E-1,-2.089953918E0,-9.508526917E0,3.043171692E0,1.020004340E1
7.304752083E-1,-2.599194946E0,-8.656049652E0,3.276985474E0,9.613617620E0
7.405012083E-1,-1.166823578E0,-1.118025055E1,3.164868622E0,1.167800809E1
7.505262083E-1,-1.228944397E-1,-1.640199188E1,2.974165192E0,1.666991600E1
7.605522083E-1,-5.703140259E-1,-2.074955109E1,2.681074677E0,2.092981820E1
7.705772083E-1,-4.608915710E-1,-2.348062180E1,2.940634918E0,2.366853089E1
7.806032083E-1,-8.791218567E-1,-2.324156891E1,4.243824921E0,2.364219598E1
7.906282083E-1,-1.967059479E0,-2.226694565E1,5.777535553E0,2.308822446E1
8.006542083E-1,-1.569785614E0,-2.014241364E1,6.656208344E0,2.127172216E1
8.106792083E-1,-1.405577087E-1,-1.634451141E1,6.473588104E0,1.758039114E1
8.207052083E-1,6.879693604E-1,-1.257669662E1,5.375471649E0,1.369460826E1
8.307302083E-1,1.369053040E0,-9.802814941E0,4.478536835E0,1.086401303E1
8.407562083E-1,1.681902466E0,-8.033045197E0,3.743565216E0,9.020692410E0
8.507812083E-1,1.725162506E0,-7.116052094E0,3.073558502E0,7.941104768E0
8.608072083E-1,1.632804565E0,-6.978937225E0,2.461481323E0,7.578291750E0
8.708322083E-1,1.294657745E0,-7.556735687E0,1.902693329E0,7.899407245E0
8.808572083E-1,8.467890930E-1,-8.636290741E0,1.629511414E0,8.829375798E0
8.908832083E-1,6.081852722E-1,-1.012614258E1,1.802701263E0,1.030331911E1
9.009082083E-1,5.806425476E-1,-1.089015381E1,1.476080475E0,1.100506289E1
9.109342083E-1,3.793112183E-1,-1.110825027E1,9.358538818E-1,1.115405414E1
9.209592083E-1,2.380050659E-1,-1.113624207E1,7.330256653E-1,1.116287868E1
9.309852084E-1,1.347198486E-3,-1.090557175E1,-5.718109131E-1,1.092055240E1
9.410102083E-1,-1.004710693E0,-1.061996567E1,-4.526437225E0,1.158800019E1
9.510362083E-1,-1.797611847E0,-1.017359390E1,-5.367388458E0,1.164226267E1
9.610612083E-1,-1.194216614E0,-9.641300812E0,-2.320923615E0,9.988369291E0
9.710872084E-1,-5.869294739E-1,-9.381740570E0,-5.295986938E-1,9.414988960E0
9.811122083E-1,-6.595285034E-1,-9.325307922E0,1.261875916E-1,9.349452872E0
9.911382083E-1,-1.100511475E0,-9.506131897E0,5.995033264E-1,9.588382209E0
1.001163208E0,-1.597927094E0,-9.748627625E0,1.043929138E0,9.933725364E0
1.011189208E0,-1.967957611E0,-9.868827667E0,1.455124054E0,1.016779242E1
1.021214208E0,-2.221979370E0,-9.915680237E0,1.787283325E0,1.031757183E1
1.031239208E0,-2.440524902E0,-1.000923569E1,2.104922791E0,1.051530602E1
1.041265208E0,-2.586770782E0,-1.011566437E1,2.471959534E0,1.072980115E1
1.051290208E0,-2.728526001E0,-1.026056305E1,2.733615417E0,1.096342380E1
1.061316208E0,-2.900368652E0,-1.055589890E1,2.831811218E0,1.130744421E1
1.071341208E0,-3.123853912E0,-1.099643280E1,2.786006470E0,1.176613061E1
1.081367208E0,-3.271896057E0,-1.133667526E1,2.792742462E0,1.212538330E1
1.091392208E0,-3.445534973E0,-1.141556122E1,2.282453613E0,1.214068959E1
1.101418208E0,-3.795058136E0,-1.166314636E1,1.690883789E0,1.238105558E1
1.111443208E0,-3.979923706E0,-1.203033279E1,1.857487335E0,1.280698868E1
1.121469208E0,-4.131259003E0,-1.245425125E1,2.011367340E0,1.327483611E1
1.131494208E0,-4.373455353E0,-1.285541702E1,1.469344482E0,1.365825142E1
1.141520208E0,-4.631518707E0,-1.326960571E1,2.839595032E-1,1.405752590E1
1.151545208E0,-4.361629944E0,-1.329160995E1,-1.312770081E0,1.405041196E1
1.161571208E0,-3.183130646E0,-1.250903732E1,-3.728446655E0,1.343538797E1
1.171596208E0,-1.573078766E0,-1.162752045E1,-7.379504242E0,1.386112879E1
1.181621208E0,3.162922668E-1,-1.122770187E1,-8.080646210E0,1.383684116E1
1.191647208E0,1.293160858E0,-1.139939484E1,-4.428989868E0,1.229774040E1
1.201672208E0,1.759890289E0,-1.158470947E1,-2.798430634E0,1.204715408E1
1.211698208E0,2.380200348E0,-1.156435181E1,-1.836381226E0,1.194871886E1
1.221723208E0,2.687960358E0,-1.149429749E1,-1.043330383E-1,1.180486726E1
1.231749208E0,2.368824005E0,-1.117366425E1,2.082768860E0,1.161034134E1
1.241774208E0,2.009122009E0,-1.066981201E1,3.395838318E0,1.137599128E1
1.251800208E0,1.853146362E0,-1.036863831E1,3.684737549E0,1.115885758E1
1.261825208E0,1.492845612E0,-1.056158707E1,3.397634583E0,1.119462506E1
1.271851208E0,1.048419800E0,-1.107965973E1,2.799777832E0,1.147592261E1
1.281876208E0,7.238946533E-1,-1.165057251E1,2.284848633E0,1.189455323E1
1.291902208E0,3.992198181E-1,-1.217702774E1,1.902693329E0,1.233124580E1
1.301927208E0,1.582209778E-1,-1.251667145E1,1.722917175E0,1.263568524E1
1.311953208E0,-3.038681030E-2,-1.269031036E1,2.050585785E0,1.285495245E1
1.321978208E0,-4.037104797E-1,-1.281559982E1,2.473456421E0,1.305835241E1
1.332003208E0,-9.313632202E-1,-1.285002823E1,2.128872986E0,1.305843647E1
1.342029208E0,-1.826801147E0,-1.259540771E1,7.728428650E-1,1.275063857E1
1.352054208E0,-2.586172028E0,-1.182196609E1,-4.757107544E-1,1.211088225E1
1.362080208E0,-2.564616852E0,-1.077938416E1,-2.712359619E-1,1.108358928E1
1.372104958E0,-2.084565125E0,-9.862091675E0,6.649172974E-1,1.010189977E1
1.382130958E0,-1.269060974E0,-9.229656830E0,6.732998657E-1,9.340792989E0
1.392155958E0,-5.200186157E-1,-9.062304840E0,3.116519165E-1,9.082561054E0
1.402181958E0,-1.383123779E-1,-9.283544769E0,7.150630188E-1,9.312070066E0
1.412206958E0,1.028361511E-1,-9.427096252E0,1.388811951E0,9.529402797E0
1.422232958E0,5.168751526E-1,-9.297914886E0,1.424138489E0,9.420538817E0
1.432257958E0,6.917115784E-1,-9.073082428E0,1.041833496E0,9.158859464E0
1.442283958E0,3.623963928E-1,-8.719667358E0,6.066883850E-1,8.748257014E0
1.452308958E0,4.251159668E-2,-8.286468201E0,3.544628906E-1,8.294154955E0
1.462334958E0,1.133143616E-1,-8.036338348E0,6.553372192E-1,8.063810580E0
1.472359958E0,4.921765137E-1,-7.900271301E0,1.054706726E0,7.985545106E0
1.482384958E0,9.960287476E-1,-7.749684448E0,1.163081360E0,7.899521540E0
1.492410958E0,1.478625183E0,-7.461533661E0,9.635462952E-1,7.667414067E0
1.502435958E0,1.845212860E0,-7.119045868E0,5.354365540E-1,7.373758667E0
1.512461958E0,2.214345245E0,-6.802005157E0,2.459385681E-1,7.157589315E0
1.522486958E0,2.517614594E0,-6.427334290E0,3.008743286E-1,6.909380195E0
1.532512958E0,2.634222107E0,-5.960006104E0,5.688171387E-1,6.540974836E0
1.542537958E0,2.437980194E0,-5.548062744E0,6.753955078E-1,6.097614840E0
1.552563958E0,1.953737183E0,-5.335504761E0,6.020480347E-1,5.713769497E0
1.562588958E0,1.396595764E0,-5.391188965E0,2.841091919E-1,5.576389174E0
1.572614958E0,9.339079285E-1,-5.580395508E0,-2.365081787E-2,5.658052439E0
1.582639958E0,6.459068298E-1,-5.680686951E0,-3.864962769E-1,5.730338492E0
1.592665958E0,3.858975220E-1,-5.629942474E0,-7.246430969E-1,5.689488270E0
1.602690958E0,5.598358154E-2,-5.466781769E0,-8.437953186E-1,5.531801480E0
1.612716958E0,-5.120851135E-1,-5.360652466E0,-8.815168762E-1,5.456729609E0
1.622741958E0,-1.297950897E0,-5.534890137E0,-1.048868866E0,5.780987049E0
1.632766958E0,-2.199675751E0,-6.071673889E0,-1.289418640E0,6.585316823E0
1.642792958E0,-3.186423798E0,-6.860982513E0,-1.530716858E0,7.718126182E0
1.652817958E0,-3.942950592E0,-7.960146790E0,-2.103425903E0,9.128811358E0
1.662843958E0,-4.455185394E0,-9.340875549E0,-3.313210144E0,1.086636988E1
1.672868958E0,-4.927752686E0,-1.064720901E1,-4.411625977E0,1.253428299E1
1.682894958E0,-5.450016632E0,-1.178424454E1,-4.963677979E0,1.389997121E1
1.692919958E0,-6.140081635E0,-1.269674698E1,-5.705235901E0,1.521373403E1
1.702945958E0,-6.875053253E0,-1.320583832E1,-6.077661438E0,1.608099784E1
1.712970958E0,-6.927294617E0,-1.298519714E1,-5.354964294E0,1.566136642E1
1.722996958E0,-6.476731567E0,-1.225621307E1,-4.831802216E0,1.468022900E1
1.733021958E0,-6.247408447E0,-1.161090500E1,-5.889502716E0,1.444054949E1
1.743047958E0,-6.068231049E0,-1.129116989E1,-7.283404083E0,1.474319913E1
1.753072958E0,-5.227579193E0,-1.097278198E1,-6.498885498E0,1.378278061E1
1.763098958E0,-3.795656891E0,-1.006746460E1,-3.667223969E0,1.136703067E1
1.773123958E0,-2.173180847E0,-8.479117584E0,-7.725434875E-1,8.787205098E0
1.783148958E0,-5.366340637E-1,-6.941215668E0,1.450932770E0,7.111515800E0
1.793174958E0,6.975494385E-1,-6.474037170E0,2.871778107E0,7.116659469E0
1.803199958E0,1.267863464E0,-7.121889954E0,2.827320557E0,7.766758385E0
1.813225958E0,1.228345642E0,-8.542884979E0,1.901944885E0,8.837822760E0
1.823250958E0,9.063652039E-1,-1.060724213E1,1.501377869E0,1.075124267E1
1.833276958E0,7.860154724E-1,-1.291529251E1,1.302591248E0,1.300458938E1
1.843301958E0,6.691085815E-1,-1.629750916E1,9.669891357E-1,1.633987696E1
1.853327958E0,-4.367916870E-1,-2.326686630E1,-3.594774628E0,2.354697983E1
1.863352958E0,-3.002007294E0,-2.432516556E1,-1.409049866E1,2.827132610E1
1.873378958E0,-2.638563080E0,-1.899939056E1,-1.410067749E1,2.380688897E1
1.883403958E0,-2.164498901E-1,-1.369591919E1,-6.761589203E0,1.527560609E1
1.893429958E0,1.100212097E0,-1.021685394E1,4.077520752E-1,1.028400860E1
1.903454958E0,1.329086151E0,-8.440797272E0,2.222129059E0,8.829008219E0
1.913480958E0,1.620829468E0,-6.215524750E0,2.383194122E0,6.851237137E0
1.923505958E0,2.225871277E0,-4.359534302E0,3.029100952E0,5.756343879E0
1.933530958E0,2.566712494E0,-2.981799316E0,3.424728241E0,5.216119603E0
1.943556958E0,2.905009003E0,-1.853445740E0,3.909570007E0,5.211437043E0
1.953581958E0,2.874322815E0,-1.519639893E0,3.780388641E0,4.986218540E0
1.963607958E0,2.028731232E0,-3.100951538E0,3.424578552E0,5.045729790E0
1.973632958E0,1.070124664E0,-5.521717529E0,3.766317902E0,6.769023697E0
1.983658958E0,5.921685791E-1,-7.902516632E0,4.302652588E0,9.017386098E0
1.993683958E0,1.398092651E-1,-1.017074982E1,4.472249908E0,1.111146785E1
2.003709958E0,-4.685256958E-2,-1.214140182E1,4.391118622E0,1.291114852E1
2.013734958E0,2.874023438E-2,-1.338202194E1,4.690496063E0,1.418027117E1
2.023760958E0,-9.714797974E-2,-1.361688354E1,4.569846954E0,1.436358090E1
2.033785958E0,-4.992118835E-1,-1.292292664E1,4.052822113E0,1.355273450E1
2.043811958E0,-8.997789001E-1,-1.180789536E1,3.494483185E0,1.234695944E1
2.053836958E0,-1.465003510E0,-1.082818268E1,3.045566711E0,1.134333514E1
2.063862958E0,-1.631157990E0,-1.064002396E1,3.504811707E0,1.132053405E1
2.073887958E0,-1.273851013E0,-1.011431717E1,2.618055725E0,1.052503321E1
2.083912958E0,-1.026265869E0,-9.574689331E0,1.914369049E0,9.817978727E0
2.093938958E0,-9.903405762E-1,-9.157806244E0,1.526525574E0,9.336834045E0
2.103963958E0,-1.166823578E0,-8.871002655E0,9.610015869E-1,8.998871564E0
2.113989958E0,-1.299747162E0,-8.805888062E0,6.750961304E-2,8.901548449E0
2.124014958E0,-1.501527557E0,-9.195976868E0,-4.888833618E-1,9.330572464E0
2.134040958E0,-1.715732117E0,-9.779613190E0,7.454498291E-2,9.929256155E0
2.144065958E0,-1.957180023E0,-1.012868729E1,4.556524658E-1,1.032610667E1
2.154091958E0,-2.129172363E0,-1.013692017E1,3.866459656E-1,1.036532781E1
2.164116958E0,-2.232607269E0,-9.882299652E0,5.538482666E-2,1.013150774E1
2.174142958E0,-2.239642639E0,-9.498048706E0,-7.057823181E-1,9.784020495E0
2.184167958E0,-2.263742523E0,-9.221723328E0,-2.379152527E0,9.789028455E0
2.194193958E0,-2.088606720E0,-9.223220215E0,-3.444786530E0,1.006462237E1
2.204218958E0,-1.599423981E0,-9.278754730E0,-2.263293457E0,9.683797999E0
2.214244958E0,-1.273851013E0,-9.463769989E0,-8.502319336E-1,9.586893822E0
2.224269958E0,-1.132245483E0,-9.618548126E0,-4.640350342E-2,9.685071047E0
2.234294958E0,-1.110839996E0,-9.773775330E0,4.619393921E-1,9.847539677E0
2.244320958E0,-1.036295013E0,-9.866881714E0,9.747729492E-1,9.968923935E0
2.254345958E0,-7.509883118E-1,-9.609267426E0,1.373543701E0,9.735945059E0
2.264371958E0,-4.802014160E-1,-9.194330292E0,1.420246582E0,9.315761014E0
2.274396958E0,-3.341052246E-1,-8.947194214E0,1.357826385E0,9.055804939E0
2.284422958E0,-2.797682190E-1,-8.918154602E0,1.419947205E0,9.034821627E0
2.294447958E0,-1.954934692E-1,-9.030271454E0,1.713187408E0,9.193423265E0
2.304473958E0,-3.682342529E-2,-9.269773407E0,2.032922516E0,9.490143779E0
2.314498958E0,1.342707825E-1,-9.522897034E0,2.269131317E0,9.790431732E0
2.324524958E0,3.501219177E-1,-9.680968323E0,2.460283813E0,9.994835140E0
2.334549958E0,5.767506409E-1,-9.707463226E0,2.602188721E0,1.006672090E1
2.344575958E0,6.704557800E-1,-9.588011627E0,2.677931213E0,9.977514395E0
2.354600958E0,5.694158936E-1,-9.491911469E0,2.484533386E0,9.828200442E0
2.364626958E0,1.694476318E-1,-9.592053223E0,2.004631348E0,9.800752235E0
2.374652083E0,-5.764512634E-1,-1.001073257E1,1.551224213E0,1.014659348E1
2.384677083E0,-1.273401947E0,-1.039947418E1,1.309776306E0,1.055869925E1
2.394703083E0,-1.830992432E0,-1.069525909E1,1.171164551E0,1.091387772E1
2.404728083E0,-2.277064819E0,-1.084180435E1,9.839039612E-1,1.112195184E1
2.414754083E0,-2.671644287E0,-1.079644867E1,7.039860535E-1,1.114435209E1
2.424779083E0,-3.043171692E0,-1.071172485E1,3.879931641E-1,1.114237327E1
2.434805083E0,-3.400328979E0,-1.087533463E1,3.574566650E-1,1.140012788E1
2.444830083E0,-3.632645874E0,-1.127021347E1,3.882925415E-1,1.184755666E1
2.454856083E0,-3.741918640E0,-1.157468033E1,-7.842192078E-1,1.218975716E1
2.464881083E0,-3.932622070E0,-1.199201248E1,-3.743116150E0,1.316376839E1
2.474907083E0,-4.074077911E0,-1.250694168E1,-5.597909088E0,1.429539392E1
2.484932083E0,-3.973936157E0,-1.289388702E1,-4.474644928E0,1.421502509E1
2.494958083E0,-3.853436737E0,-1.311512695E1,-3.395239563E0,1.408485646E1
2.504983083E0,-3.845802612E0,-1.342288696E1,-3.315904541E0,1.435128270E1
2.515009083E0,-3.863615570E0,-1.365355728E1,-2.902464294E0,1.448348890E1
2.525034083E0,-3.855233002E0,-1.347617615E1,-2.159559174E0,1.418216630E1
2.535059083E0,-3.963158569E0,-1.302276901E1,-1.940564575E0,1.375008834E1
2.545085083E0,-4.113146667E0,-1.256442215E1,-2.202070770E0,1.340267866E1
2.555110083E0,-3.809128876E0,-1.242790604E1,-2.355801086E0,1.321030318E1
2.565136083E0,-2.867137756E0,-1.285915924E1,-2.167941742E0,1.335209447E1
2.575161083E0,-1.671873322E0,-1.354203918E1,-1.564247131E0,1.373422203E1
2.585187083E0,-5.212161255E-1,-1.369936203E1,-1.719923401E-1,1.371035257E1
2.595212083E0,2.722837830E-1,-1.318368439E1,1.401535492E0,1.326076824E1
2.605238083E0,8.240364075E-1,-1.280078064E1,2.410736847E0,1.305184558E1
2.615263083E0,1.514400787E0,-1.274270142E1,2.713407440E0,1.311611334E1
2.625289083E0,2.301763458E0,-1.296409103E1,2.728825378E0,1.344664491E1
2.635314083E0,2.963237915E0,-1.318607941E1,3.258573761E0,1.390222184E1
2.645340083E0,3.194506989E0,-1.323158478E1,3.705843658E0,1.410719631E1
2.655365083E0,3.065475311E0,-1.315135162E1,3.514242096E0,1.395367643E1
2.665391083E0,2.676733704E0,-1.278521301E1,3.821253662E0,1.360986975E1
2.675416083E0,2.031575317E0,-1.190998306E1,4.023632812E0,1.273438714E1
2.685441083E0,1.541793823E0,-1.055365356E1,3.772604828E0,1.131323468E1
2.695467083E0,4.799020386E-1,-9.456734619E0,1.043480072E0,9.526226235E0
2.705492083E0,-1.373843079E0,-9.046737213E0,-3.457809448E0,9.781990860E0
2.715518083E0,-2.347119141E0,-8.959019623E0,-4.167932739E0,1.015601616E1
2.725543083E0,-2.192640381E0,-8.677455139E0,-1.128652954E0,9.021072942E0
2.735569083E0,-1.825753326E0,-8.347541199E0,1.226250000E0,8.632410343E0
2.745594083E0,-1.574425964E0,-8.238268433E0,1.554068298E0,8.530123807E0
2.755620083E0,-1.428329773E0,-8.401878204E0,1.244362335E0,8.612788220E0
2.765645083E0,-1.143023071E0,-8.624914398E0,1.018631744E0,8.759752322E0
2.775671083E0,-8.141569519E-1,-8.667425995E0,9.363029480E-1,8.755785980E0
2.785696083E0,-5.902226257E-1,-8.586444397E0,1.173559570E0,8.686347460E0
2.795722083E0,-3.168910217E-1,-8.334667969E0,1.375938721E0,8.453420458E0
2.805747083E0,-1.065783691E-1,-8.026309204E0,1.184636536E0,8.113960938E0
2.815773083E0,3.070115662E-1,-7.736960907E0,7.595205688E-1,7.780211544E0
2.825798083E0,8.036787415E-1,-7.648494873E0,2.647993469E-1,7.695160300E0
2.835824083E0,1.334325256E0,-7.594756622E0,-1.326242065E-1,7.712220252E0
2.845849083E0,2.069147186E0,-7.304809570E0,-3.269201660E-1,7.599242708E0
2.855874083E0,2.946622467E0,-6.810836792E0,-3.195854187E-1,7.427800254E0
2.865900083E0,3.538042603E0,-6.340963898E0,-4.345463562E-1,7.274228423E0
2.875925083E0,3.612587585E0,-5.937852173E0,-4.016148376E-1,6.962052281E0
2.885951083E0,3.206781464E0,-5.695356445E0,-9.325607300E-2,6.536759831E0
2.895976083E0,2.395318909E0,-5.736520844E0,-2.380050659E-2,6.216573858E0
2.906002083E0,1.463057556E0,-5.943390656E0,-3.517684937E-2,6.120920462E0
2.916027083E0,7.216493225E-1,-6.186934204E0,-8.427474976E-2,6.229448998E0
2.926053083E0,2.383044434E-1,-6.484515381E0,-2.787203979E-1,6.494875964E0
2.936078083E0,-2.993774414E-2,-6.736591187E0,-5.827381897E-1,6.761814910E0
2.946104083E0,-1.395098877E-1,-6.886728973E0,-8.614585876E-1,6.941801629E0
2.956129083E0,-2.561174011E-1,-6.916217651E0,-1.088237000E0,7.005991899E0
2.966155083E0,-5.005590820E-1,-6.934329987E0,-1.392105103E0,7.090377167E0
2.976180083E0,-9.491761780E-1,-7.121440887E0,-1.737137604E0,7.391447949E0
2.986206083E0,-1.679507446E0,-7.495962067E0,-1.956880646E0,7.927141630E0
2.996231083E0,-2.475701752E0,-7.956554260E0,-2.270029449E0,8.636485892E0
3.006256083E0,-3.089425507E0,-8.509055328E0,-2.450554047E0,9.378368071E0
3.016282083E0,-3.530109100E0,-9.056317291E0,-2.522105255E0,1.004189066E1
3.026307083E0,-3.959566040E0,-9.611662445E0,-2.456391907E0,1.068157663E1
3.036333083E0,-4.363875275E0,-1.024529480E1,-1.933678894E0,1.130259205E1
3.046358083E0,-4.645140381E0,-1.094883179E1,-1.426084442E0,1.197864615E1
3.056384083E0,-5.175487518E0,-1.174532547E1,-2.007924500E0,1.299115477E1
3.066409083E0,-6.443201294E0,-1.271785309E1,-4.221970367E0,1.486888240E1
3.076435083E0,-7.871980133E0,-1.366448456E1,-6.922654266E0,1.722235035E1
3.086460083E0,-9.027876434E0,-1.452923630E1,-9.010662231E0,1.933373461E1
3.096486083E0,-9.433383179E0,-1.482337463E1,-8.134983215E0,1.936231147E1
3.106511083E0,-8.304131470E0,-1.383004028E1,-4.813540192E0,1.683445226E1
3.116537083E0,-6.735992432E0,-1.189995392E1,-3.593726807E0,1.413850663E1
3.126562083E0,-5.512287140E0,-9.640103302E0,-2.916984100E0,1.148153724E1
3.136588083E0,-3.801195374E0,-7.383545837E0,-1.255139923E0,8.398881570E0
3.146613083E0,-1.656605072E0,-6.184090118E0,8.833131409E-1,6.462782146E0
3.156639083E0,-1.293310547E-1,-6.550079041E0,2.286944275E0,6.939047202E0
3.166664083E0,5.763015747E-1,-7.650590515E0,1.842368774E0,7.890372706E0
3.176689083E0,1.060843964E0,-9.430838470E0,9.633966064E-1,9.539089956E0
3.186715083E0,1.416055298E0,-1.206311462E1,8.214916992E-1,1.217369277E1
3.196740083E0,1.759141846E0,-1.506033188E1,9.313632202E-1,1.519130060E1
3.206766083E0,2.352358246E0,-2.118918686E1,5.270539856E-1,2.132587665E1
3.216791083E0,1.761836243E0,-2.479653534E1,-2.409389648E0,2.497553584E1
3.226817083E0,3.110531616E-1,-2.043340851E1,-5.362448730E0,2.112763105E1
3.236842083E0,7.246430969E-1,-1.423240356E1,-5.228477325E0,1.517970336E1
3.246868083E0,1.712588654E0,-9.908345490E0,-1.642085266E0,1.018845986E1
3.256893083E0,1.557810516E0,-7.876620483E0,4.616400146E-1,8.042452073E0
3.266919083E0,1.620979156E0,-5.869444427E0,6.706054688E-1,6.125982616E0
3.276944083E0,1.889969788E0,-4.253404999E0,1.168170776E0,4.798756385E0
3.286970083E0,2.216291199E0,-2.958896942E0,1.517095184E0,3.996072521E0
3.296995083E0,2.387535095E0,-2.090852051E0,1.699116669E0,3.599858828E0
3.307021083E0,2.237397308E0,-1.827399902E0,2.108814697E0,3.576651583E0
3.317046083E0,1.791624298E0,-3.146307220E0,2.893033905E0,4.634523916E0
3.327072083E0,1.454974365E0,-5.675148468E0,3.339854736E0,6.743803837E0
3.337097083E0,1.270408173E0,-7.805817719E0,3.605402527E0,8.691585273E0
3.347123083E0,9.653425598E-1,-9.738299103E0,3.914659424E0,1.053996746E1
3.357148083E0,5.926176453E-1,-1.143427231E1,3.949237518E0,1.211157528E1
3.367173083E0,2.643502808E-1,-1.276575348E1,3.910917206E0,1.335401125E1
3.377199375E0,-4.131408691E-2,-1.330762665E1,4.050876160E0,1.391057984E1
3.387224375E0,-3.510200500E-1,-1.272518784E1,4.243974609E0,1.341882786E1
3.397250375E0,-4.700225830E-1,-1.167826492E1,4.030518494E0,1.236316594E1
3.407275375E0,-5.751040649E-1,-1.095167587E1,3.589535522E0,1.153926836E1
3.417301375E0,-6.593788147E-1,-1.042327469E1,3.226240997E0,1.093105972E1
3.427326375E0,-7.466473389E-1,-1.003393433E1,2.650388489E0,1.040489690E1
3.437352375E0,-7.779322815E-1,-9.635612640E0,2.040107574E0,9.879891118E0
3.447377375E0,-8.128097534E-1,-9.162895660E0,1.689386902E0,9.352718572E0
3.457403375E0,-8.653504944E-1,-8.779842224E0,1.436562653E0,8.938577807E0
3.467428375E0,-1.006656647E0,-8.651558990E0,1.191073151E0,8.790988899E0
3.477454375E0,-1.243763580E0,-8.746611328E0,8.872050476E-1,8.879036567E0
3.487479375E0,-1.579216003E0,-9.128467255E0,6.424639893E-1,9.286312378E0
3.497505375E0,-1.887724457E0,-9.568851471E0,4.887336731E-1,9.765514974E0
3.507530375E0,-2.035616913E0,-9.901310120E0,3.192860413E-1,1.011343769E1
3.517556375E0,-2.129172363E0,-1.007030869E1,1.553768921E-1,1.029410676E1
3.527581375E0,-2.245929565E0,-1.013811768E1,-9.131011963E-3,1.038391607E1
3.537607375E0,-2.337389374E0,-1.016341507E1,-1.408570862E-1,1.042968052E1
3.547632375E0,-2.357747040E0,-1.006941055E1,-3.677851868E-1,1.034829773E1
3.557657375E0,-2.333198090E0,-9.899513855E0,-7.942483521E-1,1.020171644E1
3.567683375E0,-2.149080963E0,-9.682315521E0,-7.545808411E-1,9.946616263E0
3.577708375E0,-1.761686554E0,-9.314979401E0,-3.016227722E-1,9.484901531E0
3.587734375E0,-1.347946930E0,-8.872948608E0,-2.350112915E-2,8.974783019E0
3.597759375E0,-9.967771912E-1,-8.495733032E0,1.179547119E-1,8.554820737E0
3.607785375E0,-7.146139526E-1,-8.414901123E0,2.300715637E-1,8.448323321E0
3.617810375E0,-5.192701721E-1,-8.620124359E0,3.299139404E-1,8.642050028E0
3.627836375E0,-3.216810608E-1,-8.878337402E0,4.495152283E-1,8.895527959E0
3.637861375E0,-1.438508606E-1,-9.072184296E0,4.745132446E-1,9.085724175E0
3.647887375E0,5.703140259E-2,-9.115743713E0,5.777984619E-1,9.134215187E0
3.657912375E0,2.688409424E-1,-9.175020447E0,7.833210754E-1,9.212321508E0
3.667938375E0,4.737648010E-1,-9.276808777E0,1.089434509E0,9.352566585E0
3.677963375E0,7.179071045E-1,-9.428742828E0,1.346899109E0,9.551477328E0
3.687989375E0,9.018745422E-1,-9.602232056E0,1.451980591E0,9.753178240E0
3.698014375E0,1.002165985E0,-9.823921051E0,1.533411255E0,9.993253302E0
3.708040375E0,9.517208862E-1,-1.013168106E1,1.743723907E0,1.032459718E1
3.718065375E0,7.472460938E-1,-1.037627243E1,2.049987030E0,1.060320013E1
3.728090375E0,4.032614136E-1,-1.036788986E1,2.245779877E0,1.061599205E1
3.738116375E0,-8.681945801E-3,-1.002809647E1,2.271077271E0,1.028205165E1
3.748141375E0,-4.472698975E-1,-9.769434357E0,2.263742523E0,1.003824826E1
3.758167375E0,-9.008267212E-1,-9.750274200E0,2.260599060E0,1.004936037E1
3.768192375E0,-1.356479187E0,-9.943372650E0,2.239043884E0,1.028221829E1
3.778218375E0,-1.847458191E0,-1.026385620E1,2.188898163E0,1.065603684E1
3.788243375E0,-2.318678284E0,-1.068029022E1,1.990410919E0,1.110885250E1
3.798269375E0,-2.910397797E0,-1.115704880E1,1.192420349E0,1.159189456E1
3.808294375E0,-3.643872528E0,-1.180220718E1,5.484594727E-1,1.236408950E1
3.818320375E0,-4.017345886E0,-1.218002151E1,7.780819702E-1,1.284902345E1
3.828345375E0,-4.189787292E0,-1.234093689E1,4.923262024E-1,1.304206372E1
3.838371375E0,-4.346361694E0,-1.251307892E1,-7.159611511E-1,1.326576814E1
3.848396375E0,-4.572990417E0,-1.284853134E1,-2.636617126E0,1.389059930E1
3.858422375E0,-4.773722992E0,-1.336660400E1,-4.365072784E0,1.484952505E1
3.868447375E0,-4.622238007E0,-1.375489655E1,-4.685256958E0,1.524840634E1
3.878473375E0,-4.201163635E0,-1.395922165E1,-3.936963043E0,1.509997758E1
3.888498375E0,-4.068389740E0,-1.435619614E1,-4.330794067E0,1.553730800E1
3.898524375E0,-4.152514801E0,-1.477951584E1,-5.521867218E0,1.631467086E1
3.908549375E0,-3.572021942E0,-1.451277054E1,-4.353247375E0,1.556697184E1
3.918574375E0,-2.554887085E0,-1.378079269E1,-2.711611176E0,1.427552207E1
3.928600375E0,-1.163380737E0,-1.264211060E1,-1.155746613E0,1.274802594E1
3.938625375E0,-3.661386108E-1,-1.197629517E1,6.301895142E-2,1.198205637E1
3.948651375E0,-3.881428528E-1,-1.180699722E1,-1.646575928E-1,1.181452286E1
3.958676375E0,-1.516346741E-1,-1.140867554E1,-5.625302124E-1,1.142354196E1
3.968702375E0,5.763015747E-2,-1.125644211E1,-2.291734314E-1,1.125892227E1
3.978727375E0,2.769241333E-1,-1.148726212E1,5.198689270E-1,1.150235374E1
3.988753375E0,7.496411133E-1,-1.195249466E1,9.617500305E-1,1.201453509E1
3.998778375E0,1.329385529E0,-1.246143631E1,1.452878723E0,1.261608170E1
4.008804375E0,2.051633606E0,-1.275752060E1,2.213297424E0,1.310962310E1
4.018829375E0,2.550097046E0,-1.293475204E1,2.793341217E0,1.347640755E1
4.028855375E0,3.011287994E0,-1.265348694E1,3.550167389E0,1.348266574E1
4.038880375E0,2.935096436E0,-1.212254105E1,4.628674622E0,1.330396261E1
4.048906375E0,2.522254944E0,-1.139086258E1,5.573360138E0,1.292965056E1
4.058931375E0,2.150577850E0,-1.048659302E1,5.789810028E0,1.217027191E1
4.068957375E0,1.606010284E0,-1.006491989E1,4.783003693E0,1.125873020E1
4.078982375E0,9.039701843E-1,-9.842482452E0,2.086660767E0,1.010177094E1
4.089008375E0,-5.743556213E-1,-9.635612640E0,-2.385589142E0,9.943135868E0
4.099033375E0,-1.979034576E0,-9.423803101E0,-4.975952454E0,1.083903804E1
4.109059375E0,-2.026036835E0,-8.902287598E0,-3.566184082E0,9.801694682E0
4.119084375E0,-1.460213470E0,-8.538394318E0,-9.045689392E-1,8.709457266E0
4.129109375E0,-8.635542297E-1,-8.477471008E0,1.320853271E0,8.623102340E0
4.139135375E0,-3.125500488E-1,-8.584348755E0,2.610870667E0,8.978049717E0
4.149160375E0,1.231938171E-1,-8.745862885E0,2.650388489E0,9.139466804E0
4.159186375E0,4.575984192E-1,-8.806037750E0,2.201472015E0,9.088573937E0
4.169211375E0,5.962101746E-1,-8.710087280E0,1.674118652E0,8.889530936E0
4.179237375E0,4.966671753E-1,-8.544082489E0,8.680448914E-1,8.602413952E0
4.189262375E0,3.583547974E-1,-8.306077423E0,1.549278259E-1,8.315247618E0
4.199288375E0,5.092410278E-1,-8.034242706E0,-2.439926147E-1,8.054061999E0
4.209313375E0,8.021818542E-1,-7.858657837E0,-1.603166199E-1,7.901120183E0
4.219339375E0,1.368753662E0,-7.489525452E0,2.489323425E-1,7.617640408E0
4.229364375E0,2.130220184E0,-6.966513062E0,3.056643677E-1,7.291335473E0
4.239390375E0,2.773731995E0,-6.509663086E0,1.646575928E-1,7.077882084E0
4.249415375E0,3.132835236E0,-6.151308289E0,-6.167175293E-2,6.903408845E0
4.259441375E0,3.138074341E0,-5.869743805E0,-2.402503967E-1,6.660264496E0
4.269466375E0,2.862647095E0,-5.701643372E0,-2.965333557E-1,6.386815917E0
4.279492375E0,2.568508759E0,-5.663023682E0,-2.885998535E-1,6.224979063E0
4.289517375E0,2.316283264E0,-5.873336334E0,-4.330494690E-1,6.328410519E0
4.299543375E0,2.054178314E0,-6.125711517E0,-5.668711853E-1,6.485779296E0
4.309568375E0,1.695524139E0,-6.252348175E0,-7.143145752E-1,6.517430868E0
4.319594375E0,1.168470154E0,-6.247707825E0,-8.405021667E-1,6.411366427E0
4.329619375E0,4.213737488E-1,-6.249803467E0,-9.512718201E-1,6.335812283E0
4.339644375E0,-4.516108704E-1,-6.368806000E0,-1.196162567E0,6.495879242E0
4.349670375E0,-1.304088135E0,-6.770271149E0,-1.352138214E0,7.026058286E0
4.359695375E0,-2.045646057E0,-7.398814087E0,-1.247356110E0,7.777082676E0
4.369721375E0,-2.746788025E0,-8.283923492E0,-1.251098328E0,8.816659226E0
4.379746583E0,-3.375031586E0,-9.199868774E0,-1.279389496E0,9.882573610E0
4.389772583E0,-3.870501251E0,-1.008258316E1,-1.502874756E0,1.090403117E1
4.399797583E0,-4.288881226E0,-1.100002533E1,-2.178419952E0,1.200585578E1
4.409823583E0,-4.860093384E0,-1.201162170E1,-3.091521149E0,1.332130124E1
4.419848583E0,-5.849535828E0,-1.294687683E1,-4.590653687E0,1.493026424E1
4.429874583E0,-7.015161896E0,-1.363080460E1,-5.695057068E0,1.635374591E1
4.439899583E0,-8.193960571E0,-1.410157562E1,-5.305417328E0,1.715059410E1
4.449925583E0,-9.171727295E0,-1.425740158E1,-4.388274536E0,1.751145439E1
4.459950583E0,-1.010578491E1,-1.411774200E1,-5.132826233E0,1.810479034E1
4.469976583E0,-1.022613464E1,-1.332618805E1,-6.081253967E0,1.786456737E1
4.480001583E0,-8.964707794E0,-1.167841461E1,-5.228028259E0,1.562317615E1
4.490027583E0,-6.409072266E0,-9.563612366E0,-3.325334930E0,1.198318577E1
4.500052583E0,-3.136128387E0,-8.085735626E0,-9.919871521E-1,8.729172950E0
4.510078583E0,-7.869136047E-1,-7.970175934E0,1.035396881E0,8.075579492E0
4.520103583E0,1.514849854E-1,-8.533753967E0,1.864522705E0,8.736380795E0
4.530129583E0,7.590715027E-1,-9.304201813E0,1.337468719E0,9.430439199E0
4.540154583E0,1.190923462E0,-1.099343903E1,7.256909180E-1,1.108154446E1
4.550180583E0,1.520687714E0,-1.333322342E1,7.259902954E-1,1.343928569E1
4.560205583E0,2.669997711E0,-1.710732513E1,6.765930176E-1,1.732764378E1
4.570231583E0,3.568279724E0,-2.075239517E1,-4.504133606E-1,2.106175201E1
4.580256583E0,2.417323151E0,-1.908815598E1,-1.742975464E0,1.931939733E1
4.590281583E0,1.591191101E0,-1.476514572E1,-1.948647766E0,1.497793862E1
4.600307583E0,1.431473236E0,-1.073148376E1,-7.532336426E-1,1.085270567E1
4.610332583E0,1.179547119E0,-8.553512878E0,1.556762695E-2,8.634474872E0
4.620358583E0,1.024918671E0,-6.847360840E0,3.941304016E-1,6.934850217E0
4.630383583E0,1.102756805E0,-5.448819122E0,7.750881958E-1,5.613061919E0
4.640409583E0,1.275347900E0,-4.416266327E0,9.662406921E-1,4.697184435E0
4.650434583E0,1.383423157E0,-3.635639648E0,1.028211823E0,4.023550029E0
4.660460583E0,1.297950897E0,-3.257226562E0,1.212628326E0,3.710076666E0
4.670485583E0,1.302441559E0,-3.775448914E0,1.534908142E0,4.278587561E0
4.680511583E0,1.534758453E0,-5.590424652E0,1.907483368E0,6.103017622E0
4.690536583E0,1.442400513E0,-7.331603851E0,2.259251862E0,7.806225288E0
4.700562583E0,1.352138214E0,-9.037306824E0,2.592009888E0,9.498405531E0
4.710587583E0,1.332379303E0,-1.065828598E1,3.093616791E0,1.117786918E1
4.720613583E0,1.204245758E0,-1.201027451E1,3.758085022E0,1.264199765E1
4.730638583E0,1.072070618E0,-1.280422348E1,4.111649780E0,1.349085387E1
4.740664583E0,9.575587463E-1,-1.255514145E1,3.953877869E0,1.319778943E1
4.750689583E0,8.442443848E-1,-1.172421936E1,3.780837708E0,1.234766383E1
4.760715583E0,6.524931335E-1,-1.080468155E1,3.739373932E0,1.145206567E1
4.770740583E0,2.794688416E-1,-1.011566437E1,3.750450897E0,1.079215689E1
4.780766583E0,-1.142124939E-1,-9.787546692E0,3.543880463E0,1.041000497E1
4.790791583E0,-3.942800903E-1,-9.675878906E0,2.943479004E0,1.012137135E1
4.800817583E0,-4.903802490E-1,-9.586963806E0,2.282752991E0,9.867183439E0
4.810842583E0,-4.842430115E-1,-9.444310455E0,1.740580444E0,9.615566107E0
4.820867583E0,-4.918771362E-1,-9.271869049E0,1.284927979E0,9.373395259E0
4.830893583E0,-5.866300964E-1,-9.162895660E0,7.966433716E-1,9.216150629E0
4.840918583E0,-7.059320068E-1,-9.186546478E0,4.318519592E-1,9.223745026E0
4.850944583E0,-9.666897583E-1,-9.294921112E0,1.808239746E-1,9.346803993E0
4.860969583E0,-1.277293854E0,-9.519603882E0,-2.454895020E-2,9.604943535E0
4.870995583E0,-1.477577362E0,-9.763895874E0,-1.487905884E-1,9.876185303E0
4.881020583E0,-1.646126862E0,-9.916728058E0,-2.992277527E-1,1.005687657E1
4.891046583E0,-1.810335388E0,-9.982291718E0,-4.511618042E-1,1.015514693E1
4.901071583E0,-1.899849243E0,-9.928852844E0,-7.033872986E-1,1.013342487E1
4.911097583E0,-1.981579285E0,-9.897118835E0,-8.541238403E-1,1.012961723E1
4.921122583E0,-2.031126251E0,-9.775122528E0,-5.710624695E-1,1.000023033E1
4.931148583E0,-1.931732941E0,-9.577234039E0,-2.339634705E-1,9.772908620E0
4.941173583E0,-1.702409821E0,-9.261690216E0,-2.529739380E-2,9.416886153E0
4.951199583E0,-1.412762146E0,-9.020242310E0,1.534309387E-1,9.131495456E0
4.961224583E0,-1.099912720E0,-8.957373047E0,4.020639038E-1,9.033603670E0
4.971250583E0,-8.529263306E-1,-9.039851532E0,7.671546936E-1,9.112350156E0
4.981275583E0,-6.722520447E-1,-9.216035156E0,1.111738129E0,9.307157916E0
4.991301583E0,-5.411247253E-1,-9.448651428E0,1.359173584E0,9.561233321E0
5.001326583E0,-4.013154602E-1,-9.622889099E0,1.419797516E0,9.735341478E0
5.011352583E0,-2.353106689E-1,-9.581275635E0,1.384470978E0,9.683644654E0
5.021377583E0,-4.191284180E-2,-9.471104736E0,1.340911560E0,9.565648197E0
5.031403583E0,1.276844788E-1,-9.412875824E0,1.286873932E0,9.501293550E0
5.041428583E0,2.703378296E-1,-9.413025513E0,1.270258484E0,9.502193876E0
5.051454583E0,4.020639038E-1,-9.456734619E0,1.305585022E0,9.554895985E0
5.061479583E0,5.352868652E-1,-9.493108978E0,1.351988525E0,9.603828563E0
5.071504583E0,6.595285034E-1,-9.489067383E0,1.448537750E0,9.621623525E0
5.081530583E0,7.881111145E-1,-9.364526367E0,1.618883514E0,9.536050390E0
5.091555583E0,7.854167175E-1,-9.276808777E0,1.835782471E0,9.489265397E0
5.101581583E0,6.147715759E-1,-9.400002594E0,1.981429596E0,9.626217123E0
5.111606583E0,3.329077148E-1,-9.629924469E0,2.043251038E0,9.849931351E0
5.121632583E0,-7.334747314E-3,-9.976004791E0,2.080673218E0,1.019067841E1
5.131657583E0,-3.468287659E-1,-1.033376083E1,2.060315552E0,1.054285556E1
5.141683583E0,-6.611750793E-1,-1.057296341E1,2.051334229E0,1.079039758E1
5.151708583E0,-9.458830261E-1,-1.077145065E1,2.035467224E0,1.100281649E1
5.161734583E0,-1.251697083E0,-1.090138046E1,2.006577301E0,1.115496275E1
5.171759583E0,-1.539847870E0,-1.095332245E1,1.883383484E0,1.122022894E1
5.181785583E0,-1.855541382E0,-1.100631226E1,1.544488220E0,1.126798062E1
5.191810583E0,-2.190844116E0,-1.116094070E1,1.084345093E0,1.142550654E1
5.201836583E0,-2.395169220E0,-1.121662491E1,7.400610352E-1,1.149335461E1
5.211861583E0,-2.453098755E0,-1.114163086E1,4.044589233E-1,1.141565674E1
5.221887583E0,-2.574645996E0,-1.112726074E1,-3.667373657E-1,1.142712693E1
5.231912583E0,-2.781964874E0,-1.127889542E1,-1.538051605E0,1.171829395E1
5.241938583E0,-3.198548584E0,-1.176328812E1,-2.381248169E0,1.242078915E1
5.251963583E0,-3.588637390E0,-1.236862930E1,-2.312690735E0,1.308471809E1
5.261989583E0,-3.747457123E0,-1.283116745E1,-2.001787262E0,1.351626595E1
5.272014583E0,-3.824546814E0,-1.330178879E1,-2.052531738E0,1.399205595E1
5.282040583E0,-3.860472107E0,-1.383228561E1,-2.452949066E0,1.456888223E1
5.292065583E0,-3.818858643E0,-1.401879776E1,-3.313210144E0,1.490260828E1
5.302091583E0,-3.544030151E0,-1.376537476E1,-5.284610596E0,1.516485414E1
5.312116583E0,-2.496957550E0,-1.294343399E1,-5.654641113E0,1.434371802E1
5.322142583E0,-9.740245056E-1,-1.202853653E1,-2.864443359E0,1.240320324E1
5.332167583E0,1.785786438E-1,-1.124297012E1,-2.212399292E-1,1.124656457E1
5.342192583E0,9.541159058E-1,-1.047222290E1,2.880010986E-1,1.051954059E1
5.352218583E0,1.120719452E0,-1.036324951E1,-3.215313721E-1,1.042863054E1
5.362243583E0,7.837701416E-1,-1.065050217E1,4.207749939E-1,1.068758830E1
5.372269583E0,5.746549988E-1,-1.118369339E1,2.136507111E0,1.140043371E1
5.382294833E0,4.963677979E-1,-1.184382065E1,3.098556519E0,1.225249040E1
5.392320833E0,6.489006042E-1,-1.258418106E1,3.251987457E0,1.301376607E1
5.402345833E0,1.082099762E0,-1.305150925E1,3.358116760E0,1.351997713E1
5.412371833E0,1.517693939E0,-1.323682388E1,3.636388092E0,1.381087324E1
5.422396833E0,1.698517914E0,-1.341465408E1,3.929179230E0,1.408106376E1
5.432422833E0,1.736538849E0,-1.334639603E1,3.895648956E0,1.401135022E1
5.442447833E0,1.537003784E0,-1.274464737E1,3.858526154E0,1.340435158E1
5.452473833E0,1.368753662E0,-1.159294235E1,3.595972137E0,1.221477853E1
5.462498833E0,8.479866028E-1,-1.068073929E1,3.066523132E0,1.114454293E1
5.472524833E0,-2.121089172E-1,-1.025771896E1,6.539900208E-1,1.028073400E1
5.482549833E0,-2.010169830E0,-1.001941452E1,-4.762496338E0,1.127434350E1
5.492575833E0,-2.638712769E0,-9.757608948E0,-5.841752014E0,1.167475071E1
5.502600833E0,-1.873354340E0,-9.428144073E0,-2.354154510E0,9.896534778E0
5.512626833E0,-7.623646545E-1,-9.349707184E0,8.375083923E-1,9.418048874E0
5.522651833E0,3.269201660E-1,-9.920170898E0,2.326162720E0,1.019449363E1
5.532677833E0,1.065184937E0,-1.062056442E1,2.144440613E0,1.088713154E1
5.542702833E0,1.289718018E0,-1.082024918E1,1.322350159E0,1.097678344E1
5.552728833E0,1.135089569E0,-1.056248520E1,8.505313110E-1,1.065729447E1
5.562753833E0,9.421408081E-1,-1.005384293E1,3.427871704E-1,1.010370674E1
5.572779833E0,6.456074524E-1,-9.526339874E0,-1.803749084E-1,9.549895051E0
5.582804833E0,9.002279663E-1,-8.923693085E0,-4.369413757E-1,8.979622844E0
5.592830833E0,1.588496704E0,-8.371790771E0,-4.824467468E-1,8.534808572E0
5.602855833E0,2.392175446E0,-7.896379395E0,-1.793270874E-1,8.252724951E0
5.612881833E0,3.267704773E0,-7.438331909E0,2.004331970E-1,8.126921283E0
5.622906833E0,4.010759583E0,-6.936725006E0,2.359094238E-1,8.016233498E0
5.632932833E0,4.376598816E0,-6.583309937E0,4.489164734E-1,7.918087706E0
5.642957833E0,4.488416290E0,-6.254294128E0,5.254074097E-1,7.716095437E0
5.652982833E0,4.247716827E0,-5.807173920E0,6.402186584E-1,7.223312752E0
5.663008833E0,3.750600586E0,-5.492528229E0,2.850073242E-1,6.657033895E0
5.673033833E0,2.855462036E0,-5.657784576E0,-2.633024597E-1,6.342989669E0
5.683059833E0,1.844763794E0,-6.088289337E0,-5.807922363E-1,6.388093623E0
5.693084833E0,1.040785675E0,-6.529721375E0,-6.803352356E-1,6.647055896E0
5.703110833E0,3.661386108E-1,-6.844067688E0,-5.310955811E-1,6.874400521E0
5.713135833E0,-1.697470093E-1,-6.843468933E0,-5.557942200E-1,6.868099322E0
5.723161833E0,-5.554948425E-1,-6.601871338E0,-6.568341064E-1,6.657680582E0
5.733186833E0,-1.005758514E0,-6.230044556E0,-5.164260864E-1,6.331800791E0
5.743212833E0,-1.554816742E0,-6.080206146E0,-2.909948730E-1,6.282598181E0
5.753237833E0,-2.110012207E0,-6.288423157E0,1.010398865E-1,6.633749043E0
5.763263833E0,-2.522254944E0,-6.707850952E0,1.099014587E0,7.250163271E0
5.773288833E0,-2.763553162E0,-7.110962677E0,2.314936066E0,7.972574569E0
5.783314833E0,-3.181035004E0,-7.667655029E0,2.791694641E0,8.758166264E0
5.793339833E0,-3.427572327E0,-8.491092682E0,1.664538574E0,9.306857453E0
5.803365833E0,-3.753893738E0,-9.367819519E0,3.505709839E-1,1.009805232E1
5.813390833E0,-4.548291779E0,-1.034438873E1,-1.098864899E0,1.135345060E1
5.823416833E0,-6.027066650E0,-1.144055923E1,-3.724704437E0,1.345679572E1
5.833441833E0,-8.034242706E0,-1.264450562E1,-6.309978333E0,1.625571914E1
5.843467833E0,-9.556427307E0,-1.367945343E1,-7.134613495E0,1.814815304E1
5.853492833E0,-1.011925690E1,-1.424123520E1,-6.301296387E0,1.857198095E1
5.863518833E0,-9.810449066E0,-1.394530060E1,-5.135969696E0,1.780714756E1
5.873543833E0,-8.980874176E0,-1.258403137E1,-5.199737091E0,1.631107637E1
5.883569833E0,-8.234825592E0,-1.069001999E1,-5.344486084E0,1.451386962E1
5.893594833E0,-7.010371857E0,-8.990753632E0,-3.903133392E0,1.205045288E1
5.903620833E0,-4.817282410E0,-7.892786865E0,-1.461261292E0,9.361494479E0
5.913645833E0,-2.211351471E0,-7.640112305E0,1.232686615E0,8.048658748E0
5.923671833E0,-2.157014465E-1,-8.653055878E0,3.018922119E0,9.167103899E0
5.933696833E0,7.306306458E-1,-9.790839844E0,2.518213348E0,1.013586525E1
5.943722833E0,1.255738678E0,-1.133323242E1,1.063538361E0,1.145208062E1
5.953747833E0,1.605261841E0,-1.366702927E1,5.758525085E-1,1.377302293E1
5.963773833E0,2.306852875E0,-1.764500702E1,3.847000122E-1,1.779932125E1
5.973798833E0,2.997965698E0,-2.329381027E1,-4.599934387E-1,2.349044464E1
5.983823833E0,2.587668915E0,-2.242142441E1,-2.067051544E0,2.266470836E1
5.993849833E0,2.389031982E0,-1.837997864E1,-2.449356537E0,1.869573310E1
6.003874833E0,2.301164703E0,-1.271875122E1,-9.397457886E-1,1.295936394E1
6.013900833E0,1.905238037E0,-9.049431610E0,2.498304749E-1,9.251192340E0
6.023925833E0,1.868414612E0,-6.640790405E0,5.174739075E-1,6.918009079E0
6.033951833E0,2.035467224E0,-4.671635284E0,9.044192505E-1,5.175449471E0
6.043976833E0,2.204465790E0,-3.221900024E0,1.179846497E0,4.078277448E0
6.054002833E0,2.137105865E0,-2.207459564E0,1.402583313E0,3.377475264E0
6.064027833E0,2.043999481E0,-1.574725342E0,1.788331146E0,3.139398361E0
6.074053833E0,1.958527222E0,-1.747915192E0,2.340383148E0,3.516877831E0
6.084078833E0,1.740281067E0,-4.190535736E0,2.824326782E0,5.344716056E0
6.094104833E0,1.546434174E0,-6.974296875E0,3.128344574E0,7.798641890E0
6.104129833E0,1.437610474E0,-9.210496674E0,3.568579102E0,9.981719774E0
6.114155833E0,1.292412415E0,-1.140238861E1,3.847000122E0,1.210306597E1
6.124180833E0,1.268312531E0,-1.303504349E1,3.727548523E0,1.361673946E1
6.134206833E0,1.343456268E0,-1.380189880E1,3.392844543E0,1.427615773E1
6.144231833E0,1.149160309E0,-1.332214645E1,3.384611664E0,1.379332272E1
6.154257833E0,8.768765259E-1,-1.190429489E1,3.052153015E0,1.232058389E1
6.164282833E0,5.038522339E-1,-1.064241898E1,2.537672882E0,1.095238478E1
6.174308833E0,1.368154907E-1,-9.908644867E0,2.094893646E0,1.012860015E1
6.184333833E0,-1.402583313E-1,-9.514963531E0,1.747017059E0,9.675033437E0
6.194359833E0,-3.589535522E-1,-9.237141266E0,1.401984558E0,9.349822839E0
6.204384833E0,-4.692741394E-1,-8.986262970E0,1.152303772E0,9.071986793E0
6.214410833E0,-5.947132874E-1,-8.799750824E0,9.948312378E-1,8.875752793E0
6.224435833E0,-7.527845764E-1,-8.737031250E0,7.711962891E-1,8.803246185E0
6.234461833E0,-8.937913513E-1,-8.788374481E0,6.116281128E-1,8.854856179E0
6.244486833E0,-1.060394897E0,-9.007069702E0,4.453239441E-1,9.080201285E0
6.254512833E0,-1.216370544E0,-9.343569946E0,2.498304749E-1,9.425723946E0
6.264537833E0,-1.358874207E0,-9.664652252E0,8.457412720E-2,9.760081713E0
6.274563833E0,-1.474733276E0,-9.924811249E0,-2.993774414E-4,1.003377878E1
6.284588833E0,-1.568288727E0,-1.004291565E1,-7.110214233E-2,1.016487776E1
6.294614833E0,-1.642983398E0,-9.985584869E0,-9.535171509E-2,1.012029602E1
6.304639833E0,-1.644180908E0,-9.870623932E0,-1.474433899E-1,1.000771139E1
6.314665833E0,-1.610650635E0,-9.845326538E0,-2.993774414E-1,9.980695214E0
6.324690833E0,-1.413510590E0,-9.713450775E0,-2.656974792E-1,9.819355035E0
6.334715833E0,-1.081351318E0,-9.480235748E0,3.817062378E-2,9.541784294E0
6.344741833E0,-7.746391296E-1,-9.346114655E0,1.872605896E-1,9.380031527E0
6.354766833E0,-5.671705627E-1,-9.276359711E0,2.270777893E-1,9.296456113E0
6.364792833E0,-3.650907898E-1,-9.243428192E0,2.923420715E-1,9.255253639E0
6.374818875E0,-1.817221069E-1,-9.301657104E0,3.071612549E-1,9.308501268E0
6.384844875E0,4.490661621E-3,-9.391620026E0,3.183879089E-1,9.397016427E0
6.394869875E0,1.365161133E-1,-9.433083801E0,3.402424622E-1,9.440205060E0
6.404895875E0,2.189945984E-1,-9.384434967E0,3.887416077E-1,9.395035834E0
6.414920875E0,2.499801636E-1,-9.264833679E0,4.273612976E-1,9.278053183E0
6.424946875E0,1.781295776E-1,-9.173822937E0,4.593946838E-1,9.187045276E0
6.434971875E0,2.814147949E-2,-9.128317566E0,4.294569397E-1,9.138457572E0
6.444997875E0,-2.136058044E-1,-9.235494690E0,3.920347595E-1,9.246279298E0
6.455022875E0,-5.697152710E-1,-9.468260651E0,4.427792358E-1,9.495714227E0
6.465048875E0,-1.000369720E0,-9.782906342E0,6.487509155E-1,9.855296739E0
6.475073875E0,-1.434616699E0,-1.015443375E1,8.896000671E-1,1.029378638E1
6.485099875E0,-1.811832275E0,-1.046818130E1,1.140029297E0,1.068481272E1
6.495124875E0,-2.090103607E0,-1.061831909E1,1.427431641E0,1.091580480E1
6.505150875E0,-2.242037659E0,-1.064062271E1,1.665885773E0,1.100112539E1
6.515175875E0,-2.328857117E0,-1.055170761E1,1.812730408E0,1.095664641E1
6.525201875E0,-2.444267120E0,-1.043270508E1,1.815424805E0,1.086791352E1
6.535226875E0,-2.663561096E0,-1.046443909E1,1.653012543E0,1.092389553E1
6.545252875E0,-2.964884491E0,-1.063179108E1,1.457219696E0,1.113323901E1
6.555277875E0,-3.134481812E0,-1.072100555E1,1.273701324E0,1.124220847E1
6.565303875E0,-3.146756287E0,-1.069091812E1,9.681866455E-1,1.118638417E1
6.575328875E0,-3.160827026E0,-1.082324295E1,5.872288513E-1,1.129062678E1
6.585354875E0,-3.184926910E0,-1.104807541E1,2.317181396E-1,1.150032273E1
6.595379875E0,-3.226839752E0,-1.159024796E1,-3.556604004E-1,1.203631326E1
6.605405875E0,-3.343896332E0,-1.235216354E1,-1.053958282E0,1.284010962E1
6.615430875E0,-3.372037811E0,-1.321511902E1,-2.004331970E0,1.378504103E1
6.625456875E0,-3.104095001E0,-1.402583313E1,-3.032394104E0,1.468178514E1
6.635481875E0,-2.245630188E0,-1.439825867E1,-3.481909332E0,1.498253651E1
6.645507875E0,-1.230291595E0,-1.440110275E1,-3.436403961E0,1.485645483E1
6.655532875E0,-3.146456909E-1,-1.419932236E1,-4.104464722E0,1.478399093E1
6.665558875E0,4.346960449E-1,-1.387374939E1,-4.008514252E0,1.444777039E1
6.675583875E0,7.864645386E-1,-1.319071976E1,-1.803449707E0,1.333664294E1
6.685609875E0,7.599696350E-1,-1.213271988E1,2.191442871E-1,1.215847317E1
6.695634875E0,5.995033264E-1,-1.113609238E1,8.931925964E-1,1.118792879E1
6.705660875E0,2.588117981E-1,-1.066786606E1,1.131946106E0,1.073087377E1
6.715685875E0,-1.981878662E-1,-1.072923843E1,1.566043396E0,1.084473733E1
6.725710875E0,-4.032614136E-1,-1.129760651E1,1.872755585E0,1.145887193E1
6.735736875E0,-2.558180237E-1,-1.219693634E1,1.928739166E0,1.235114301E1
6.745761875E0,4.805007935E-2,-1.302651123E1,1.772464142E0,1.314663199E1
6.755787875E0,5.243595886E-1,-1.343426331E1,1.606010284E0,1.354007580E1
6.765812875E0,9.901908875E-1,-1.327529388E1,1.495090942E0,1.339586513E1
6.775838875E0,1.389261017E0,-1.277278885E1,1.479673004E0,1.293304347E1
6.785863875E0,1.680106201E0,-1.198063614E1,1.701511688E0,1.221693665E1
6.795889875E0,1.935026093E0,-1.106513992E1,1.508712616E0,1.133392524E1
6.805914875E0,2.114951935E0,-1.033121613E1,3.906875610E-1,1.055270985E1
6.815940875E0,2.019001465E0,-1.002600082E1,-1.227746887E0,1.030070007E1
6.825965875E0,1.375339966E0,-1.001163071E1,-2.532583466E0,1.041817107E1
6.835991875E0,7.767347717E-1,-1.001342697E1,-2.608176270E0,1.037663819E1
6.846016875E0,2.853067017E-1,-9.887089691E0,-1.121467896E0,9.954578480E0
6.856042875E0,-1.960922241E-1,-9.611512756E0,8.825646973E-1,9.653939614E0
6.866067875E0,-4.676275635E-1,-9.393565979E0,1.670376434E0,9.552377441E0
6.876093875E0,-6.161187744E-1,-9.258397064E0,1.160536652E0,9.351169117E0
6.886118875E0,-6.695576477E-1,-9.151070251E0,4.355941772E-1,9.185866126E0
6.896144875E0,-6.647676086E-1,-9.080267487E0,6.497987366E-1,9.127727647E0
6.906169875E0,-5.249583435E-1,-9.035959625E0,1.068029022E0,9.113991091E0
6.916195875E0,-2.363584900E-1,-8.864566040E0,1.405876465E0,8.978467856E0
6.926220875E0,2.270777893E-1,-8.638087006E0,1.216819611E0,8.726325768E0
6.936246875E0,1.208437042E0,-8.371491394E0,5.659730530E-1,8.477176048E0
6.946271875E0,2.289189606E0,-8.037386169E0,2.052232361E-1,8.359550351E0
6.956297875E0,3.131937103E0,-7.736362152E0,2.740800476E-1,8.350775368E0
6.966322875E0,3.587589569E0,-7.500153351E0,4.598437500E-1,8.326737385E0
6.976348875E0,3.535946960E0,-7.374115448E0,6.442602539E-1,8.203387765E0
6.986373875E0,3.055595856E0,-7.210355988E0,5.354365540E-1,7.849368879E0
6.996399875E0,2.416125641E0,-6.931485901E0,2.639012146E-1,7.345257229E0
7.006424875E0,1.930685120E0,-6.561156006E0,1.606159973E-1,6.841206813E0
7.016450875E0,1.402583313E0,-6.212530975E0,1.040336609E-1,6.369741288E0
7.026475875E0,9.217831421E-1,-6.043382721E0,1.197509766E-1,6.114450030E0
7.036501875E0,6.334826660E-1,-6.000422058E0,1.808239746E-1,6.036477655E0
7.046526875E0,5.366340637E-1,-6.034850464E0,1.407073975E-1,6.060296594E0
7.056552875E0,5.484594727E-1,-6.000721436E0,3.921844482E-2,6.025861235E0
7.066577875E0,5.918692017E-1,-5.949378204E0,-1.302291870E-1,5.980164698E0
7.076603875E0,4.776567078E-1,-5.898334351E0,-2.433938599E-1,5.922646757E0
7.086628875E0,4.191284180E-2,-5.987997894E0,-1.796264648E-1,5.990838100E0
7.096654875E0,-6.822811890E-1,-6.259084167E0,8.981323242E-3,6.296167318E0
7.106679875E0,-1.547631683E0,-6.624174957E0,1.303788757E-1,6.803811898E0
7.116705875E0,-2.343676300E0,-7.099586334E0,2.020797729E-1,7.479156433E0
7.126730875E0,-2.871628418E0,-7.651338959E0,4.875361633E-1,8.186997566E0
7.136756875E0,-3.077300720E0,-8.254584503E0,5.724096680E-1,8.828114061E0
7.146781875E0,-3.108136597E0,-8.964109039E0,-2.912942505E-1,9.492134445E0
7.156807875E0,-3.552861786E0,-9.729467468E0,-1.670675812E0,1.049173588E1
7.166832875E0,-4.472998352E0,-1.057131683E1,-3.241060181E0,1.192748611E1
7.176858875E0,-6.008205872E0,-1.162437698E1,-5.434598694E0,1.416896401E1
7.186883875E0,-7.796686707E0,-1.275662247E1,-6.863377533E0,1.645070489E1
7.196908875E0,-9.350755005E0,-1.382794464E1,-7.872279510E0,1.845593284E1
7.206934875E0,-1.085138443E1,-1.497725464E1,-8.190068665E0,2.022740530E1
7.216959875E0,-1.202554276E1,-1.609842316E1,-7.163054352E0,2.133265699E1
7.226985875E0,-1.199889816E1,-1.659598846E1,-5.455106049E0,2.119336151E1
7.237010875E0,-9.713151398E0,-1.473176514E1,-4.138144684E0,1.812441601E1
7.247036875E0,-6.819818115E0,-1.084464844E1,-3.143014069E0,1.319071099E1
7.257061875E0,-3.908522186E0,-7.152127075E0,-1.233435059E0,8.243229308E0
7.267087875E0,-1.279988251E0,-5.084776154E0,8.686436462E-1,5.314871611E0
7.277112875E0,1.640588379E-1,-4.889432373E0,2.338287506E0,5.422273757E0
7.287138875E0,9.132508850E-1,-5.799539795E0,2.141446838E0,6.249358653E0
7.297163875E0,1.255139923E0,-7.784861298E0,1.025367737E0,7.951780973E0
7.307189875E0,1.497785339E0,-1.095077774E1,8.328680420E-1,1.108406799E1
7.317214875E0,1.866768036E0,-1.470152802E1,1.157692566E0,1.486472337E1
7.327240875E0,2.298619995E0,-1.980232086E1,2.235002289E0,2.006017948E1
7.337265875E0,2.701282654E0,-2.534634201E1,1.907932434E0,2.556118517E1
7.347291875E0,2.273472290E0,-2.344993561E1,-1.098864899E0,2.358549682E1
7.357316875E0,1.911524963E0,-1.913934952E1,-1.748813324E0,1.931390628E1
7.367342875E0,2.048789520E0,-1.323457855E1,-7.997868347E-1,1.341608240E1
7.377366458E0,2.045795746E0,-9.465865631E0,-8.607101440E-2,9.684797396E0
7.387392458E0,2.222727814E0,-6.798113251E0,3.269201660E-1,7.159730407E0
7.397417458E0,2.584076385E0,-4.603975983E0,8.095166016E-1,5.341288491E0
7.407443458E0,2.710862732E0,-2.923570404E0,1.129251709E0,4.143820711E0
7.417468458E0,2.604284363E0,-1.724863129E0,1.365310822E0,3.409035567E0
7.427494458E0,2.529739380E0,-1.064586182E0,1.589694214E0,3.171758623E0
7.437519458E0,2.598895569E0,-1.292562103E0,1.695973206E0,3.361740633E0
7.447545458E0,2.220033417E0,-3.408112793E0,1.807940369E0,4.451115541E0
7.457570458E0,1.814826050E0,-5.820795593E0,2.102527771E0,6.449486643E0
7.467596458E0,1.520987091E0,-8.036937103E0,2.692600708E0,8.611379582E0
7.477621458E0,1.261576538E0,-1.022418869E1,3.428021393E0,1.085711474E1
7.487647458E0,1.128054199E0,-1.194201645E1,3.630250854E0,1.253247719E1
7.497672458E0,1.119372253E0,-1.313817902E1,3.379971313E0,1.361208831E1
7.507698458E0,1.259780273E0,-1.356209747E1,3.274889832E0,1.400865581E1
7.517723458E0,1.108894043E0,-1.284598663E1,3.427572327E0,1.334156178E1
7.527749458E0,7.146139526E-1,-1.164024399E1,3.396586761E0,1.214671786E1
7.537774458E0,2.582130432E-1,-1.083147583E1,3.071762238E0,1.126158363E1
7.547800458E0,-8.906478882E-2,-1.021266266E1,2.560126190E0,1.052903876E1
7.557825458E0,-3.628454590E-1,-9.703721008E0,2.032024384E0,9.920835717E0
7.567851458E0,-4.656816101E-1,-9.297316132E0,1.702858887E0,9.463438857E0
7.577876458E0,-5.426216125E-1,-8.891360321E0,1.454974365E0,9.025944658E0
7.587902458E0,-6.807843018E-1,-8.641080780E0,1.214274902E0,8.752497235E0
7.597927458E0,-8.681945801E-1,-8.637937317E0,9.377998352E-1,8.731963780E0
7.607953458E0,-1.029559021E0,-8.783584442E0,6.957531738E-1,8.871043902E0
7.617978458E0,-1.155147858E0,-9.055568848E0,5.158273315E-1,9.143509806E0
7.628004458E0,-1.367256775E0,-9.427245941E0,3.528163147E-1,9.532409794E0
7.638029458E0,-1.524579620E0,-9.749825134E0,2.019300842E-1,9.870370253E0
7.648054458E0,-1.621128845E0,-9.969119110E0,1.694476318E-1,1.010149034E1
7.658080458E0,-1.703158264E0,-1.009590546E1,2.383044434E-1,1.024133019E1
7.668106458E0,-1.788031769E0,-1.016206787E1,3.044668579E-1,1.032266347E1
7.678131458E0,-1.964664459E0,-1.025816803E1,1.321751404E-1,1.044544820E1
7.688156458E0,-2.049238586E0,-1.034184402E1,-3.315605164E-1,1.054813012E1
7.698182458E0,-1.796863403E0,-1.005923172E1,-1.775308228E-1,1.021999893E1
7.708207458E0,-1.403780823E0,-9.674082642E0,2.390528870E-1,9.778324081E0
7.718233458E0,-1.217418365E0,-9.542057190E0,2.978805542E-1,9.624016610E0
7.728258458E0,-1.122815094E0,-9.521699524E0,1.868115234E-1,9.589492901E0
7.738284458E0,-9.883946228E-1,-9.520502014E0,1.068777466E-1,9.572267515E0
7.748309458E0,-8.026309204E-1,-9.537865906E0,1.145118713E-1,9.572262815E0
7.758335458E0,-5.324427795E-1,-9.473200378E0,7.454498291E-2,9.488444429E0
7.768360458E0,-1.794767761E-1,-9.324559479E0,-1.654060364E-1,9.327753242E0
7.778386458E0,1.383123779E-1,-9.229507141E0,-4.415817261E-1,9.241099870E0
7.788411458E0,2.853067017E-1,-9.226513367E0,-4.966671753E-1,9.244275369E0
7.798437458E0,1.884580994E-1,-9.280850372E0,-2.143542480E-1,9.285238168E0
7.808462458E0,-3.293151855E-3,-9.302555237E0,1.986369324E-1,9.304676319E0
7.818488458E0,-1.962419128E-1,-9.326355743E0,5.526507568E-1,9.344776359E0
7.828513458E0,-3.610491943E-1,-9.502988434E0,8.496331787E-1,9.547723406E0
7.838539458E0,-5.523513794E-1,-9.755812683E0,1.150058441E0,9.838882435E0
7.848564458E0,-7.214996338E-1,-1.001836670E1,1.437909851E0,1.014671463E1
7.858590458E0,-8.514294434E-1,-1.017943176E1,1.711540833E0,1.035737105E1
7.868615458E0,-8.910969543E-1,-1.023960663E1,1.978435822E0,1.046698648E1
7.878641458E0,-9.319619751E-1,-1.019080811E1,2.135908356E0,1.045386184E1
7.888666458E0,-1.037342834E0,-1.021131546E1,2.188598785E0,1.049461806E1
7.898692458E0,-1.202000427E0,-1.030052994E1,2.134261780E0,1.058776631E1
7.908717458E0,-1.474284210E0,-1.040621017E1,1.907782745E0,1.068187058E1
7.918743458E0,-1.828148346E0,-1.046413971E1,1.537452850E0,1.073331764E1
7.928768458E0,-2.225571899E0,-1.062834824E1,1.072968750E0,1.091174681E1
7.938794458E0,-2.638114014E0,-1.094164673E1,4.834945679E-1,1.126556903E1
7.948819458E0,-2.973566437E0,-1.126617188E1,-1.411564636E-1,1.165283876E1
7.958845458E0,-3.324287109E0,-1.177376633E1,-7.457492065E-1,1.225677772E1
7.968870458E0,-3.813619537E0,-1.258792328E1,-1.962568817E0,1.329854063E1
7.978896458E0,-4.357588348E0,-1.359517868E1,-3.586242371E0,1.472000659E1
7.988921458E0,-4.665198669E0,-1.426129349E1,-4.736600189E0,1.573480066E1
7.998947458E0,-4.761448517E0,-1.468446350E1,-5.373226318E0,1.634553215E1
8.008972458E0,-4.782554626E0,-1.504506363E1,-5.519621887E0,1.672402446E1
8.018998458E0,-4.313280487E0,-1.482427277E1,-3.561244354E0,1.584442845E1
8.029023458E0,-3.591331787E0,-1.392314667E1,-9.346563721E-1,1.440920746E1
8.039049458E0,-3.127596130E0,-1.263372803E1,3.517684937E-2,1.301515189E1
8.049074458E0,-3.015778656E0,-1.163590302E1,-8.261320496E-1,1.204872002E1
8.059100458E0,-2.778821411E0,-1.182301392E1,-1.840123444E0,1.228379261E1
8.069125458E0,-2.114203491E0,-1.223435852E1,-1.277593231E0,1.248125111E1
8.079151458E0,-1.308578796E0,-1.227761856E1,1.459465027E-1,1.234801994E1
8.089176458E0,-6.283932495E-1,-1.248613495E1,1.577868805E0,1.260111559E1
8.099202458E0,-8.532257080E-3,-1.314117279E1,2.086810455E0,1.330583605E1
8.109227458E0,8.509803772E-1,-1.401655243E1,2.250569916E0,1.422156723E1
8.119253458E0,2.067949677E0,-1.474388992E1,2.689157867E0,1.512912013E1
8.129278458E0,3.068169708E0,-1.520687714E1,2.935395813E0,1.578858215E1
8.139304458E0,4.021237793E0,-1.532932251E1,3.133883057E0,1.615486629E1
8.149329458E0,4.808151398E0,-1.491228973E1,3.325484619E0,1.601728919E1
8.159355458E0,4.853956146E0,-1.381162857E1,4.078568573E0,1.519725948E1
8.169380458E0,4.539460144E0,-1.200952606E1,4.436623993E0,1.358377882E1
8.179406458E0,4.208049316E0,-1.016431320E1,3.274590454E0,1.147797389E1
8.189431458E0,2.807262268E0,-8.834777985E0,-1.694775696E0,9.423708831E0
8.199457458E0,4.613406372E-1,-8.331973572E0,-7.295079803E0,1.108389860E1
8.209482458E0,-3.522175598E-1,-8.283624115E0,-4.511168976E0,9.438915786E0
8.219508458E0,2.207908630E-1,-8.296197968E0,7.408094788E-1,8.332133461E0
8.229533458E0,1.162931671E0,-8.563392334E0,3.766916656E0,9.427288021E0
8.239559458E0,1.380429382E0,-8.778944092E0,4.037104797E0,9.760822701E0
8.249584458E0,9.966275024E-1,-8.877439270E0,2.717598724E0,9.337426690E0
8.259610458E0,4.981640625E-1,-8.686586151E0,1.153501282E0,8.776987615E0
8.269635458E0,-1.963916016E-1,-8.313711548E0,-1.043330383E-1,8.316685322E0
8.279661458E0,-5.173242188E-1,-7.788304138E0,-1.877096558E-1,7.807723139E0
8.289686458E0,-1.760339355E-1,-7.179071045E0,1.877096558E-1,7.183681781E0
8.299712458E0,9.912387085E-1,-6.572532349E0,6.503974915E-1,6.678604087E0
8.309737458E0,2.233206024E0,-6.148015137E0,1.292562103E0,6.667534481E0
8.319762458E0,3.068169708E0,-5.855223999E0,1.813329163E0,6.854595253E0
8.329788458E0,3.534599762E0,-5.652096405E0,2.077080688E0,6.982395967E0
8.339813458E0,3.623514862E0,-5.495372314E0,1.838327179E0,6.834356125E0
8.349839458E0,3.616629181E0,-5.309907990E0,1.395697632E0,6.574427836E0
8.359864458E0,3.581302643E0,-5.276078339E0,1.070424042E0,6.465952280E0
8.369890458E0,3.576811981E0,-5.349874878E0,7.397616577E-1,6.477807690E0
8.379915333E0,3.663781128E0,-5.456153870E0,5.149291992E-1,6.592272695E0
8.389941333E0,3.725003815E0,-5.429509277E0,2.417472839E-1,6.588904777E0
8.399966333E0,3.553310852E0,-5.357509003E0,-3.248245239E-1,6.436958264E0
8.409992333E0,2.841540985E0,-5.590125275E0,-1.502126312E0,6.448274127E0
8.420017333E0,1.379980316E0,-6.266418915E0,-4.492008820E0,7.832655675E0
8.430043333E0,-8.827143860E-1,-7.494914246E0,-8.371790771E0,1.127119359E1
8.440068333E0,-2.988535309E0,-8.960815887E0,-7.278164978E0,1.192473271E1
8.450094333E0,-4.543651428E0,-1.044737457E1,-4.327351227E0,1.218681141E1
8.460119333E0,-5.507796478E0,-1.168155807E1,-1.484013977E0,1.299988148E1
8.470145333E0,-5.439089355E0,-1.244946121E1,9.871971130E-1,1.362157611E1
8.480170333E0,-5.388793945E0,-1.266591110E1,8.906478882E-2,1.376489509E1
8.490196333E0,-6.191424866E0,-1.231189728E1,-3.492986298E0,1.421680378E1
8.500221333E0,-7.592511292E0,-1.156330399E1,-5.851481781E0,1.501985572E1
8.510247333E0,-8.245303802E0,-1.071292236E1,-4.908891907E0,1.438224461E1
8.520272333E0,-8.767717438E0,-1.056158707E1,-3.851041718E0,1.425659541E1
8.530298333E0,-9.611063690E0,-1.160192368E1,-4.228706360E0,1.564797545E1
8.540323333E0,-1.059122543E1,-1.364517471E1,-4.756059723E0,1.791605295E1
8.550349333E0,-1.047955765E1,-1.499910919E1,-2.426753540E0,1.845761463E1
8.560374333E0,-8.823701019E0,-1.409992905E1,-9.433383179E-1,1.665999958E1
8.570400333E0,-6.282285919E0,-1.152004395E1,-2.811004486E0,1.341939921E1
8.580425333E0,-4.379891968E0,-8.850794678E0,-2.853067017E0,1.027910558E1
8.590451333E0,-2.601889343E0,-6.753056946E0,-1.007554779E0,7.306762135E0
8.600476333E0,-9.303153992E-1,-6.097270660E0,1.303339691E0,6.304037643E0
8.610502333E0,4.460723877E-2,-6.707252197E0,2.706521759E0,7.232875077E0
8.620527333E0,5.608836365E-1,-7.554789734E0,2.607876892E0,8.011894923E0
8.630553333E0,8.961863708E-1,-8.703950043E0,2.062261505E0,8.989706273E0
8.640578333E0,1.117575989E0,-1.044123734E1,1.926194458E0,1.067607785E1
8.650604333E0,1.307830353E0,-1.285362076E1,1.968406677E0,1.306907080E1
8.660629333E0,1.410067749E0,-1.553245010E1,2.063159637E0,1.573219390E1
8.670655333E0,1.569785614E0,-1.797926193E1,2.535726929E0,1.822492792E1
8.680680333E0,1.533560944E0,-2.049897217E1,2.865790558E0,2.075505781E1
8.690706333E0,1.117426300E0,-2.039643539E1,1.285826111E0,2.046745141E1
8.700731333E0,1.348246307E0,-1.592957428E1,-5.963598633E-1,1.599764826E1
8.710757333E0,2.289788361E0,-1.129595993E1,-2.192041626E0,1.173230105E1
8.720782333E0,3.050506439E0,-8.238717499E0,-2.859054565E0,9.238844547E0
8.730808333E0,2.891836395E0,-6.408323822E0,-1.394649811E0,7.167592346E0
8.740833333E0,2.397264862E0,-5.027894440E0,-3.370989990E-1,5.580343811E0
8.750859333E0,2.237846375E0,-3.606600037E0,-8.951385498E-2,4.245413166E0
8.760884333E0,2.165696411E0,-2.581381989E0,9.505233765E-2,3.370876572E0
8.770910333E0,2.157762909E0,-2.067650299E0,1.567240906E-1,2.992604379E0
8.780935333E0,2.280058594E0,-2.376009064E0,3.001258850E-1,3.306684413E0
8.790961333E0,2.180216217E0,-4.290078735E0,6.686595154E-1,4.858520748E0
8.800986333E0,1.956730957E0,-6.482719116E0,1.089434509E0,6.858666833E0
8.811012333E0,1.794019318E0,-8.567882996E0,1.484463043E0,8.878668530E0
8.821037333E0,1.682351532E0,-1.068448151E1,1.863774261E0,1.097552305E1
8.831063333E0,1.555415497E0,-1.251068390E1,2.102827148E0,1.278117409E1
8.841088333E0,1.343605957E0,-1.360206436E1,2.321971436E0,1.386408970E1
8.851114333E0,1.080303497E0,-1.361478790E1,2.992127838E0,1.398149972E1
8.861139333E0,7.608677673E-1,-1.287158340E1,4.358636169E0,1.361081512E1
8.871165333E0,4.402345276E-1,-1.172047714E1,5.385650482E0,1.290614668E1
8.881190333E0,3.902384949E-1,-1.049931656E1,5.059179382E0,1.166118477E1
8.891216333E0,3.679348755E-1,-9.658065948E0,3.707490234E0,1.035176786E1
8.901241333E0,1.178050232E-1,-9.345216522E0,2.432890778E0,9.657427577E0
8.911267333E0,-1.103205872E-1,-9.252409515E0,1.744771729E0,9.416128762E0
8.921292333E0,-2.935395813E-1,-9.196875000E0,1.343306580E0,9.299093925E0
8.931318333E0,-4.126918030E-1,-9.168883209E0,1.078357544E0,9.241298005E0
8.941343333E0,-5.170248413E-1,-9.135203247E0,8.443940735E-1,9.188702542E0
8.951369333E0,-6.141728210E-1,-9.081015930E0,6.438111877E-1,9.124502804E0
8.961394333E0,-7.306306458E-1,-9.091494141E0,4.852908325E-1,9.133706479E0
8.971420333E0,-9.259744263E-1,-9.166637878E0,3.496728516E-1,9.219921352E0
8.981445333E0,-1.156644745E0,-9.297166443E0,2.570155334E-1,9.372362985E0
8.991471333E0,-1.423988800E0,-9.468110962E0,2.272274780E-1,9.577290933E0
9.001496333E0,-1.749861145E0,-9.618548126E0,3.218307495E-1,9.781720560E0
9.011522333E0,-2.096839600E0,-9.752519531E0,4.540058899E-1,9.985714539E0
9.021547333E0,-2.426454163E0,-9.990674286E0,2.133064270E-1,1.028332398E1
9.031573333E0,-2.562371521E0,-1.014200958E1,-3.245251465E-1,1.046572610E1
9.041598333E0,-2.167492676E0,-9.685159607E0,1.863624573E-1,9.926483369E0
9.051624333E0,-1.773362274E0,-9.275311890E0,7.188052368E-1,9.470633842E0
9.061649333E0,-1.570983124E0,-8.981472931E0,7.937992859E-1,9.152319995E0
9.071675333E0,-1.495989075E0,-8.855734406E0,6.243516541E-1,9.002878993E0
9.081700333E0,-1.474583588E0,-9.109157410E0,2.746788025E-1,9.231825059E0
9.091726333E0,-1.323547668E0,-9.437424774E0,1.944456482E-1,9.531766568E0
9.101751333E0,-9.448352051E-1,-9.499844971E0,3.800596619E-1,9.554277230E0
9.111777333E0,-5.508544922E-1,-9.472002869E0,3.742218018E-1,9.495384193E0
9.121802333E0,-2.372566223E-1,-9.324260101E0,1.966909790E-1,9.329351772E0
9.131828333E0,2.754272461E-2,-9.160201263E0,2.206411743E-1,9.162899558E0
9.141853333E0,2.561174011E-1,-9.194479980E0,4.207749939E-1,9.207665819E0
9.151879333E0,4.631369019E-1,-9.342971191E0,7.108717346E-1,9.381414877E0
9.161904333E0,6.294410706E-1,-9.604776764E0,1.067729645E0,9.684419412E0
9.171929333E0,7.707472229E-1,-9.857750702E0,1.432670746E0,9.991088312E0
9.181955333E0,9.590556335E-1,-9.993368683E0,1.787582703E0,1.019718869E1
9.191981333E0,1.050665131E0,-9.991273041E0,2.185155945E0,1.028126163E1
9.202006333E0,8.354127502E-1,-1.014784744E1,2.493215332E0,1.048297882E1
9.212031333E0,3.344046021E-1,-1.046533722E1,2.633174286E0,1.079669933E1
9.222057333E0,-1.944456482E-1,-1.073612411E1,2.573298798E0,1.104192179E1
9.232082333E0,-7.164102173E-1,-1.096020813E1,2.465822296E0,1.125698385E1
9.242108333E0,-1.221010895E0,-1.109462860E1,2.117646332E0,1.136072521E1
9.252133333E0,-1.719474335E0,-1.121797211E1,1.606609039E0,1.146214128E1
9.262159333E0,-2.118245087E0,-1.130015121E1,1.135987701E0,1.155295840E1
9.272184333E0,-2.386038208E0,-1.133038834E1,6.577322388E-1,1.159756396E1
9.282210333E0,-2.563419342E0,-1.145103745E1,-3.787124634E-2,1.173451369E1
9.292235333E0,-2.761158142E0,-1.172885971E1,-9.541159058E-1,1.208720321E1
9.302261333E0,-3.289858704E0,-1.233884125E1,-2.379900970E0,1.298976914E1
9.312286333E0,-4.030368805E0,-1.310943878E1,-3.836970978E0,1.424161522E1
9.322312333E0,-4.329297180E0,-1.357841354E1,-3.957171021E0,1.479105577E1
9.332337333E0,-4.147425385E0,-1.382270554E1,-3.131787415E0,1.476741068E1
9.342363333E0,-4.038302307E0,-1.416534302E1,-2.839445343E0,1.500090925E1
9.352388333E0,-4.228856049E0,-1.452474564E1,-3.389252014E0,1.550285420E1
9.362414333E0,-4.230053558E0,-1.424752213E1,-3.354973297E0,1.523617687E1
9.372439333E0,-4.065395966E0,-1.360850098E1,-2.774630127E0,1.447125826E1
9.382465625E0,-3.519780579E0,-1.303309753E1,-2.078278198E0,1.365905293E1
9.392490625E0,-2.045196991E0,-1.209724365E1,-1.196012878E0,1.232706703E1
9.402516625E0,-5.891748047E-1,-1.140643021E1,-7.696994019E-1,1.144754184E1
9.412541625E0,3.424877930E-1,-1.122605530E1,-1.347198486E-3,1.123127852E1
9.422567625E0,6.960525513E-1,-1.122889938E1,1.261875916E0,1.132099825E1
9.432592625E0,8.921447754E-1,-1.157991943E1,1.746567993E0,1.174482678E1
9.442618625E0,1.105600891E0,-1.220217545E1,1.739682312E0,1.237505287E1
9.452643625E0,1.363664246E0,-1.273925858E1,1.856738892E0,1.294587844E1
9.462669625E0,1.812730408E0,-1.294403275E1,2.046095123E0,1.322953062E1
9.472694625E0,2.485581207E0,-1.285182449E1,2.174528046E0,1.326936619E1
9.482720625E0,3.199596405E0,-1.260274246E1,2.434687042E0,1.322853868E1
9.492745625E0,3.693718872E0,-1.211311066E1,3.210823059E0,1.306447066E1
9.502771625E0,3.938908997E0,-1.163814835E1,3.100652161E0,1.267184063E1
9.512796625E0,4.003275146E0,-1.117501144E1,2.752625885E0,1.218540282E1
9.522822625E0,3.734583893E0,-1.100017502E1,2.564018097E0,1.189643460E1
9.532847625E0,3.152893524E0,-1.100376755E1,1.706900482E0,1.157312175E1
9.542873625E0,1.884580994E0,-1.099254089E1,-2.673440552E-1,1.115612270E1
9.552898625E0,-3.742218018E-3,-1.098745148E1,-2.868634644E0,1.135575487E1
9.562924625E0,-1.265318756E0,-1.084419937E1,-2.851719818E0,1.128405944E1
9.572949625E0,-1.593137054E0,-1.036519547E1,-6.994953918E-1,1.051021677E1
9.582975625E0,-1.261426849E0,-9.717043304E0,1.343156891E0,9.890207213E0
9.593000625E0,-9.632469177E-1,-9.416168976E0,2.355352020E0,9.753961551E0
9.603026625E0,-8.505313110E-1,-9.387877808E0,2.331701202E0,9.710431697E0
9.613051625E0,-6.682104492E-1,-9.198222198E0,1.788031769E0,9.394192590E0
9.623077625E0,-5.378315735E-1,-8.835376740E0,9.376501465E-1,8.901254559E0
9.633102625E0,-2.839595032E-1,-8.450976105E0,7.768844604E-2,8.456102271E0
9.643128625E0,1.779798889E-1,-8.243507538E0,-2.589614868E-1,8.249494192E0
9.653153625E0,1.082249451E0,-8.210276642E0,-4.131408691E-2,8.281401648E0
9.663179625E0,2.052082672E0,-8.086933136E0,3.498225403E-1,8.350563253E0
9.673204625E0,2.933749237E0,-7.681725769E0,3.746708679E-1,8.231413830E0
9.683230625E0,3.592229919E0,-6.991960144E0,-1.556762695E-2,7.860780165E0
9.693255625E0,4.100722504E0,-6.227649536E0,-2.884501648E-1,7.462087328E0
9.703281625E0,4.278702393E0,-5.604196014E0,-1.251397705E-1,7.051947752E0
9.713306625E0,4.038002930E0,-5.076842651E0,7.933502197E-3,6.486899252E0
9.723332625E0,3.485352173E0,-4.777315521E0,1.809736633E-1,5.916348099E0
9.733357625E0,2.901566162E0,-4.770878906E0,2.341131592E-1,5.588844308E0
9.743383625E0,2.342778168E0,-4.981940002E0,4.819976807E-2,5.505511688E0
9.753408625E0,1.789229279E0,-5.261857910E0,-1.146615601E-1,5.558924118E0
9.763434625E0,1.149908752E0,-5.509443054E0,-1.618135071E-1,5.630491676E0
9.773459625E0,2.293231201E-1,-5.733676758E0,-4.394860840E-1,5.755066140E0
9.783485625E0,-1.043480072E0,-6.067183228E0,-1.408271484E0,6.315282381E0
9.793510625E0,-2.738106079E0,-6.772516479E0,-2.959495697E0,7.881803039E0
9.803536625E0,-4.270469513E0,-7.842940521E0,-3.763024750E0,9.690664639E0
9.813561625E0,-5.417534180E0,-8.913813629E0,-3.172951813E0,1.090290664E1
9.823587625E0,-6.088139648E0,-9.675579529E0,-2.020648041E0,1.160884586E1
9.833612625E0,-6.363267517E0,-1.040471329E1,-1.165476379E0,1.225183934E1
9.843638625E0,-6.318510590E0,-1.114642090E1,-1.468446350E0,1.289661233E1
9.853663625E0,-6.365662537E0,-1.162168259E1,-2.674338684E0,1.351803436E1
9.863689625E0,-7.089108124E0,-1.197764236E1,-4.752616882E0,1.470737019E1
9.873714625E0,-7.949668579E0,-1.204215820E1,-6.515650635E0,1.583238794E1
9.883740625E0,-7.767198029E0,-1.155132889E1,-4.927004242E0,1.476610765E1
9.893765625E0,-6.731801147E0,-1.084539688E1,-2.125130768E0,1.294047762E1
9.903791625E0,-5.892945557E0,-1.029109955E1,-1.003513184E0,1.190128463E1
9.913816625E0,-5.236410828E0,-9.890981598E0,-1.172212372E0,1.125280397E1
9.923842625E0,-4.567152557E0,-9.671537933E0,-1.771116943E0,1.084132758E1
9.933867625E0,-3.601809998E0,-9.480385437E0,-1.921254730E0,1.032191664E1
9.943893625E0,-2.210453339E0,-9.317224731E0,-1.124761047E0,9.641673510E0
9.953918625E0,-7.217990112E-1,-9.857750702E0,1.332229614E-1,9.885038749E0
9.963944625E0,2.676434326E-1,-1.102786743E1,7.836204529E-1,1.105891288E1
9.973969625E0,7.283853149E-1,-1.225007584E1,5.912704468E-1,1.228594742E1
9.983995625E0,9.196875000E-1,-1.393841492E1,2.799179077E-1,1.397152782E1
9.994020625E0,1.228495331E0,-1.590263031E1,-4.411326599E-1,1.595611010E1
1.000404662E1,1.505269775E0,-1.835183716E1,-3.598816223E0,1.876185605E1
1.001407162E1,3.478765869E-1,-1.868474487E1,-7.214397583E0,2.003218015E1
1.002409762E1,-2.953358459E-1,-1.492935425E1,-5.254822540E0,1.582990845E1
1.003412263E1,5.460644531E-1,-1.109852051E1,-1.063987427E0,1.116276906E1
1.004414862E1,1.197210388E0,-9.002878418E0,9.876461792E-1,9.135676083E0
1.005417362E1,1.313069458E0,-7.307204590E0,1.166973267E0,7.515398654E0
1.006419962E1,1.392703857E0,-5.986501007E0,1.304537201E0,6.283282235E0
1.007422463E1,1.396895142E0,-5.064268799E0,1.425186310E0,5.443279390E0
1.008425062E1,1.354383545E0,-4.390968933E0,1.588197327E0,4.861824113E0
1.009427562E1,1.310674438E0,-4.119283905E0,1.857637024E0,4.705016757E0
1.010430162E1,1.326242065E0,-5.031187592E0,2.367626495E0,5.716416869E0
1.011432663E1,1.316961365E0,-7.297624512E0,2.778372345E0,7.918905457E0
1.012435262E1,1.313518524E0,-9.393565979E0,2.841241608E0,9.901366905E0
1.013437762E1,1.353934479E0,-1.097397949E1,2.733166351E0,1.138997642E1
1.014440362E1,1.511856079E0,-1.191417435E1,2.649490356E0,1.229849821E1
1.015442863E1,1.547781372E0,-1.197809143E1,2.627935181E0,1.236027285E1
1.016445462E1,1.327439575E0,-1.095676529E1,2.604733429E0,1.134008103E1
1.017447962E1,1.229543152E0,-9.580377502E0,2.619702301E0,1.000790935E1
1.018450562E1,1.259331207E0,-8.539142761E0,2.659968567E0,9.032071023E0
1.019453063E1,1.183738403E0,-8.069120178E0,2.464475098E0,8.519716812E0
1.020455662E1,8.237370300E-1,-8.337811432E0,2.021097107E0,8.618728194E0
1.021458162E1,4.001179504E-1,-9.013206940E0,1.559606781E0,9.155892476E0
1.022460762E1,1.914518738E-1,-9.632319489E0,1.302291870E0,9.721841218E0
1.023463263E1,1.742376709E-1,-1.000953506E1,1.200802917E0,1.008281105E1
1.024465862E1,2.291734314E-1,-1.017119888E1,1.095122681E0,1.023255104E1
1.025468362E1,2.200424194E-1,-1.016102005E1,9.867480469E-1,1.021119086E1
1.026470962E1,8.158035278E-2,-1.004546036E1,8.812174988E-1,1.008436778E1
1.027473463E1,-1.817221069E-1,-9.961934052E0,6.976991272E-1,9.987989640E0
1.028476062E1,-5.436694336E-1,-9.887089691E0,3.677851868E-1,9.908853867E0
1.029478562E1,-8.554710388E-1,-9.801617432E0,4.775070190E-2,9.838994619E0
1.030481162E1,-1.007255402E0,-9.702523499E0,-1.598675537E-1,9.755976800E0
1.031483663E1,-9.916877747E-1,-9.479936371E0,-2.465373230E-1,9.534852851E0
1.032486262E1,-9.476792908E-1,-9.195527802E0,-3.417393494E-1,9.250546652E0
1.033488762E1,-9.419911194E-1,-8.969797211E0,-4.270619202E-1,9.029229821E0
1.034491362E1,-1.003363495E0,-8.983867950E0,-4.345463562E-1,9.050163103E0
1.035493863E1,-1.183588715E0,-9.235045624E0,-2.037263489E-1,9.312811302E0
1.036496462E1,-1.162332916E0,-9.255552979E0,1.713935852E-1,9.329826071E0
1.037498962E1,-9.005273438E-1,-9.036558380E0,5.248086548E-1,9.096469699E0
1.038501546E1,-6.387217712E-1,-8.987161102E0,9.108558655E-1,9.055754446E0
1.039504046E1,-4.623884583E-1,-9.177415466E0,1.331481171E0,9.285020185E0
1.040506646E1,-3.894900513E-1,-9.516161041E0,1.796414337E0,9.692065205E0
1.041509146E1,-3.730242920E-1,-9.828561401E0,2.113155670E0,1.006007919E1
1.042511746E1,-5.040019226E-1,-1.009306137E1,2.173629913E0,1.033675833E1
1.043514246E1,-7.638615417E-1,-1.023107437E1,1.908381500E0,1.043553004E1
1.044516846E1,-8.357121277E-1,-1.000639160E1,1.465751953E0,1.014764586E1
1.045519346E1,-7.023394775E-1,-9.718839569E0,1.107546844E0,9.806925274E0
1.046521946E1,-5.539979553E-1,-9.618997192E0,8.370593262E-1,9.671229965E0
1.047524446E1,-4.501139832E-1,-9.681118011E0,5.897735596E-1,9.709504694E0
1.048527046E1,-3.210823059E-1,-9.713600464E0,3.600013733E-1,9.725570873E0
1.049529546E1,-2.107617188E-1,-9.712253265E0,2.254312134E-1,9.717155099E0
1.050532146E1,-1.938468933E-1,-9.607471161E0,1.475930786E-1,9.610559944E0
1.051534646E1,-4.855902100E-1,-9.558522949E0,1.478924561E-1,9.571992008E0
1.052537246E1,-1.150208130E0,-9.845027161E0,3.412902832E-1,9.917863560E0
1.053539746E1,-1.809586945E0,-1.009066635E1,6.623725891E-1,1.027301756E1
1.054542346E1,-2.235750732E0,-1.019814285E1,1.056353302E0,1.049364480E1
1.055544846E1,-2.407743073E0,-1.019365219E1,1.328487396E0,1.055806092E1
1.056547446E1,-2.373314667E0,-1.016356476E1,1.378034363E0,1.052756619E1
1.057549946E1,-2.384092255E0,-1.038914566E1,1.323697357E0,1.074106224E1
1.058552546E1,-2.507286072E0,-1.102726868E1,1.422491913E0,1.139783406E1
1.059555046E1,-2.283351746E0,-1.149309998E1,1.422342224E0,1.180373245E1
1.060557646E1,-1.906136169E0,-1.188947571E1,1.249751129E0,1.210598470E1
1.061560146E1,-1.594633942E0,-1.234976852E1,9.439370728E-1,1.248802055E1
1.062562746E1,-1.221160583E0,-1.252714966E1,3.930825806E-1,1.259266555E1
1.063565246E1,-9.306147766E-1,-1.229812592E1,-1.910028076E-1,1.233476497E1
1.064567846E1,-9.116043091E-1,-1.206131836E1,-7.176077271E-1,1.211698741E1
1.065570346E1,-1.240470428E0,-1.223705292E1,-1.149459686E0,1.235335940E1
1.066572946E1,-1.760189667E0,-1.265722916E1,-1.551224213E0,1.287284017E1
1.067575446E1,-2.397863617E0,-1.311048660E1,-2.250569916E0,1.351664433E1
1.068578046E1,-3.089575195E0,-1.365969452E1,-3.978726196E0,1.455894884E1
1.069580546E1,-3.134182434E0,-1.404199951E1,-5.298232269E0,1.533206167E1
1.070583146E1,-1.963766327E0,-1.351195175E1,-3.762725372E0,1.416288532E1
1.071585646E1,-1.892065430E-1,-1.249840942E1,-2.180814972E0,1.268865600E1
1.072588246E1,1.310824127E0,-1.145358215E1,-1.350042572E0,1.160712794E1
1.073590746E1,1.942959595E0,-1.070259384E1,-8.460406494E-1,1.091038000E1
1.074593346E1,1.949845276E0,-1.068972061E1,-6.638694763E-1,1.088635596E1
1.075595846E1,1.882635040E0,-1.099224152E1,-4.173321533E-1,1.116010100E1
1.076598446E1,1.687440948E0,-1.152213959E1,-5.478607178E-2,1.164517751E1
1.077600946E1,1.717977448E0,-1.200323914E1,3.921844482E-1,1.213190030E1
1.078603546E1,1.942211151E0,-1.210023743E1,6.873706055E-1,1.227438016E1
1.079606046E1,2.334096222E0,-1.190010361E1,8.542735291E-1,1.215690151E1
1.080608646E1,2.698588257E0,-1.172242310E1,9.568103027E-1,1.206702398E1
1.081611146E1,2.880909119E0,-1.178753769E1,9.987231445E-1,1.217551354E1
1.082613746E1,2.714754639E0,-1.196925980E1,1.019230499E0,1.231551475E1
1.083616246E1,2.228865051E0,-1.193333450E1,8.580157471E-1,1.216998368E1
1.084618846E1,1.590891724E0,-1.143831390E1,8.443940735E-1,1.157924707E1
1.085621346E1,9.048683167E-1,-1.082503922E1,1.047671356E0,1.091319733E1
1.086623946E1,4.099974060E-1,-1.039258850E1,4.331991577E-1,1.040969044E1
1.087626446E1,-1.944456482E-1,-1.024200165E1,-1.393601990E-1,1.024479517E1
1.088629046E1,-8.779243469E-1,-1.006327332E1,-2.606080627E-1,1.010485713E1
1.089631546E1,-1.326391754E0,-9.617799683E0,-2.544708252E-1,9.712164600E0
1.090634146E1,-1.557960205E0,-9.197773132E0,-2.830613708E-1,9.333080645E0
1.091636646E1,-1.800156555E0,-8.802145844E0,-2.709365845E-2,8.984379174E0
1.092639246E1,-1.943708038E0,-8.445587311E0,5.667214966E-1,8.684878768E0
1.093641746E1,-1.886976013E0,-8.164022827E0,1.033750305E0,8.442783125E0
1.094644346E1,-1.693129120E0,-8.092321930E0,1.195563812E0,8.353546149E0
1.095646846E1,-1.449735260E0,-8.278684387E0,8.277786255E-1,8.445327996E0
1.096649446E1,-1.039438477E0,-8.511001282E0,5.936654663E-1,8.594766655E0
1.097651946E1,-5.725593567E-1,-8.617729340E0,8.415499878E-1,8.677631565E0
1.098654546E1,4.574487305E-1,-8.516240387E0,5.378315735E-1,8.545459173E0
1.099657046E1,1.498683472E0,-8.352630615E0,2.032772827E-1,8.488451684E0
1.100659646E1,2.388882294E0,-8.058791656E0,2.948867798E-1,8.410579040E0
1.101662146E1,3.217109985E0,-7.594307556E0,3.016227722E-1,8.253137598E0
1.102664746E1,3.773203583E0,-6.951693878E0,8.532257080E-2,7.910144941E0
1.103667246E1,3.892505493E0,-6.138285370E0,-6.481521606E-2,7.268723912E0
1.104669846E1,3.410807190E0,-5.363047485E0,7.484436035E-4,6.355775687E0
1.105672346E1,2.514471130E0,-4.819677429E0,-4.490661621E-3,5.436163698E0
1.106674946E1,1.670975189E0,-4.663103027E0,4.490661621E-4,4.953452143E0
1.107677446E1,1.073866882E0,-4.755910034E0,2.888992310E-2,4.875726096E0
1.108680046E1,7.595205688E-1,-4.969066772E0,-1.410067749E-1,5.028755213E0
1.109682546E1,6.083349609E-1,-5.210664368E0,-4.108955383E-1,5.262122169E0
1.110685146E1,4.489164734E-1,-5.454806671E0,-5.909710693E-1,5.505060274E0
1.111687646E1,7.379653931E-2,-5.832920380E0,-7.581733704E-1,5.882451270E0
1.112690246E1,-6.039939880E-1,-6.477180634E0,-1.294807434E0,6.632888058E0
1.113692746E1,-1.500030670E0,-7.345225525E0,-2.010768585E0,7.761805223E0
1.114695346E1,-2.523751831E0,-8.266709290E0,-2.233206024E0,8.927206446E0
1.115697846E1,-3.578757935E0,-9.140142975E0,-2.468516693E0,1.012142760E1
1.116700446E1,-4.510420532E0,-9.944719849E0,-2.877017212E0,1.129241224E1
1.117702946E1,-5.229974213E0,-1.071786209E1,-2.841990051E0,1.225977592E1
1.118705546E1,-5.892197113E0,-1.169038971E1,-2.493664398E0,1.332672355E1
1.119708046E1,-6.461613007E0,-1.280557068E1,-2.593207397E0,1.457600109E1
1.120710646E1,-7.127129059E0,-1.379261810E1,-3.704496460E0,1.596106440E1
1.121713146E1,-8.077053680E0,-1.437939789E1,-5.485642548E0,1.738097103E1
1.122715746E1,-8.419092407E0,-1.432326462E1,-4.925357666E0,1.732905579E1
1.123718246E1,-8.074359283E0,-1.368319565E1,-3.842659149E0,1.634598270E1
1.124720846E1,-7.557334442E0,-1.287322998E1,-4.978646851E0,1.573595496E1
1.125723346E1,-6.789281616E0,-1.207434128E1,-5.904172211E0,1.505799826E1
1.126725946E1,-5.057383118E0,-1.079420334E1,-4.510121155E0,1.274492615E1
1.127728446E1,-2.646197205E0,-9.179960175E0,-2.140249329E0,9.790541131E0
1.128731046E1,-4.784051514E-1,-7.928412781E0,8.202941895E-2,7.943256860E0
1.129733546E1,1.236578522E0,-7.657176819E0,1.414259033E0,7.884263560E0
1.130736146E1,1.999990997E0,-8.216264191E0,1.783541107E0,8.642220786E0
1.131738646E1,2.131866760E0,-9.346863098E0,1.440604248E0,9.694536929E0
1.132741246E1,1.940265198E0,-1.114776810E1,1.140328674E0,1.137267392E1
1.133743746E1,1.772164764E0,-1.334998856E1,1.233285370E0,1.352345204E1
1.134746346E1,1.784139862E0,-1.625694351E1,1.957329712E0,1.647126307E1
1.135748846E1,1.860630798E0,-1.968271957E1,1.801054688E0,1.985233474E1
1.136751446E1,1.033450928E0,-1.843117218E1,-1.470991058E0,1.851863773E1
1.137753946E1,-1.113684082E-1,-1.511616577E1,-3.441343689E0,1.550334535E1
1.138756546E1,-1.499880981E-1,-1.197614548E1,-3.463796997E0,1.246789664E1
1.139759046E1,6.698570251E-1,-9.206006012E0,-1.664089508E0,9.379149696E0
1.140761646E1,1.060394897E0,-7.556735687E0,-2.252815247E-1,7.634097416E0
1.141764146E1,1.257385254E0,-5.908363495E0,1.826202393E-2,6.040704459E0
1.142766746E1,1.324745178E0,-4.627028046E0,1.619631958E-1,4.815658875E0
1.143769246E1,1.232087860E0,-3.694317627E0,4.471202087E-1,3.919941288E0
1.144771846E1,1.161734161E0,-3.048111420E0,7.348219299E-1,3.343736347E0
1.145774346E1,1.249451752E0,-3.070564728E0,1.016536102E0,3.467397161E0
1.146776946E1,1.367406464E0,-4.766687622E0,1.391057281E0,5.150354520E0
1.147779446E1,1.413061523E0,-7.060517578E0,1.764830017E0,7.413654721E0
1.148782046E1,1.466799774E0,-8.985963593E0,2.164498901E0,9.358637655E0
1.149784546E1,1.484163666E0,-1.075124268E1,2.733016663E0,1.119202131E1
1.150787146E1,1.344354401E0,-1.210248276E1,3.431913300E0,1.265130059E1
1.151789646E1,8.840615845E-1,-1.279344589E1,3.803590393E0,1.337614005E1
1.152792246E1,4.776567078E-1,-1.267219803E1,4.136947174E0,1.333893139E1
1.153794746E1,4.975653076E-1,-1.158156601E1,4.406237183E0,1.240141801E1
1.154797346E1,7.734416199E-1,-1.034528687E1,3.926484833E0,1.109236023E1
1.155799846E1,7.313790894E-1,-9.778565369E0,2.965333557E0,1.024443552E1
1.156802446E1,3.896397400E-1,-9.567204895E0,2.203417969E0,9.825389528E0
1.157804946E1,2.598596191E-1,-9.455387421E0,1.581311646E0,9.590225483E0
1.158807546E1,1.648072815E-1,-9.477241974E0,1.153351593E0,9.548586114E0
1.159810046E1,1.182540894E-2,-9.526788940E0,9.015751648E-1,9.569361793E0
1.160812646E1,-1.269360352E-1,-9.416767731E0,7.078779602E-1,9.444189667E0
1.161815146E1,-2.454895020E-1,-9.191186829E0,5.185217285E-1,9.209074068E0
1.162817746E1,-3.625460815E-1,-9.075477448E0,3.287164307E-1,9.088662446E0
1.163820246E1,-4.903802490E-1,-9.082213440E0,2.022294617E-1,9.097690394E0
1.164822846E1,-6.065386963E-1,-9.211843872E0,1.402583313E-1,9.232855956E0
1.165825346E1,-7.514373779E-1,-9.474397888E0,9.505233765E-2,9.504625633E0
1.166827946E1,-9.409432983E-1,-9.766141205E0,3.278182983E-2,9.811420028E0
1.167830446E1,-1.116378479E0,-1.007764343E1,-1.287322998E-2,1.013929799E1
1.168833046E1,-1.192719727E0,-1.017299515E1,-1.646575928E-2,1.024268919E1
1.169835546E1,-1.043929138E0,-9.856104126E0,1.437011719E-2,9.911245284E0
1.170838146E1,-7.559280396E-1,-9.342671814E0,5.763015747E-2,9.373380663E0
1.171840646E1,-5.002597046E-1,-9.055269470E0,1.862127686E-1,9.070988929E0
1.172843246E1,-3.600013733E-1,-9.069340210E0,3.992198181E-1,9.085257800E0
1.173845746E1,-2.838098145E-1,-9.267228699E0,6.914122009E-1,9.297318248E0
1.174848346E1,-2.347119141E-1,-9.477840729E0,1.048120422E0,9.538506748E0
1.175850846E1,-1.047821045E-1,-9.486971741E0,1.434167633E0,9.595334747E0
1.176853446E1,-2.155517578E-2,-9.445208588E0,1.719773712E0,9.600523502E0
1.177855946E1,-6.286926270E-2,-9.465416565E0,1.834135895E0,9.641686459E0
1.178858546E1,-9.939331055E-2,-9.553732910E0,1.677860870E0,9.700459198E0
1.179861046E1,-1.875599670E-1,-9.665550385E0,1.297501831E0,9.754053208E0
1.180863646E1,-3.686833191E-1,-9.815239105E0,8.961863708E-1,9.862960818E0
1.181866146E1,-5.842350769E-1,-9.999056854E0,6.120771790E-1,1.003479482E1
1.182868746E1,-6.831793213E-1,-9.995015259E0,3.367996216E-1,1.002399611E1
1.183871246E1,-6.649172974E-1,-9.754764862E0,9.789642334E-2,9.777890173E0
1.184873846E1,-6.475534058E-1,-9.451495514E0,-7.634124756E-3,9.473655638E0
1.185876346E1,-6.692582703E-1,-9.257947998E0,6.182144165E-2,9.282312732E0
1.186878946E1,-8.147557068E-1,-9.329199829E0,2.736309814E-1,9.368706967E0
1.187881446E1,-1.131646729E0,-9.614356842E0,6.475534058E-1,9.702360909E0
1.188884046E1,-1.507964172E0,-9.982291718E0,1.078507233E0,1.015299373E1
1.189886546E1,-1.830992432E0,-1.041085052E1,1.497485962E0,1.067617938E1
1.190889146E1,-2.132465515E0,-1.082893112E1,1.797013092E0,1.118223656E1
1.191891646E1,-2.400408325E0,-1.117755615E1,1.917662201E0,1.159211585E1
1.192894246E1,-2.640808411E0,-1.145448029E1,1.875899048E0,1.190369627E1
1.193896746E1,-2.913690948E0,-1.170580765E1,1.855691071E0,1.220488087E1
1.194899346E1,-3.116668854E0,-1.198318085E1,1.852248230E0,1.251962745E1
1.195901846E1,-3.255130920E0,-1.241398499E1,1.611399078E0,1.293443109E1
1.196904446E1,-3.332519989E0,-1.286784119E1,1.271156616E0,1.335300960E1
1.197906946E1,-3.398233337E0,-1.326765976E1,6.988966370E-1,1.371376104E1
1.198909546E1,-3.589236145E0,-1.370505020E1,-4.025129700E-1,1.417296842E1
1.199912046E1,-4.047133942E0,-1.429961380E1,-3.085533600E0,1.517823328E1
1.200914646E1,-4.654271393E0,-1.480077164E1,-6.615343323E0,1.686676764E1
1.201917146E1,-4.238735504E0,-1.453836731E1,-6.905440063E0,1.664380080E1
1.202919746E1,-2.951562195E0,-1.352467529E1,-6.113886108E0,1.513301571E1
1.203922246E1,-1.043031006E0,-1.247281265E1,-4.900359650E0,1.344144687E1
1.204924846E1,7.325765991E-1,-1.199889816E1,-3.978726196E0,1.266256245E1
1.205927346E1,1.911824341E0,-1.180879349E1,-2.960244141E0,1.232338108E1
1.206929946E1,2.159110107E0,-1.139685013E1,-2.227368164E0,1.181148247E1
1.207932446E1,1.674118652E0,-1.125359802E1,-8.113128662E-1,1.140633027E1
1.208935046E1,1.177900543E0,-1.144519958E1,5.771997070E-1,1.152012165E1
1.209937546E1,1.123114471E0,-1.203901474E1,1.008452911E0,1.213326993E1
1.210940146E1,1.050066376E0,-1.290047333E1,1.102906494E0,1.299004443E1
1.211942646E1,1.369053040E0,-1.359158615E1,1.464554443E0,1.373864768E1
1.212945246E1,2.105072479E0,-1.379471375E1,1.912722473E0,1.408488426E1
1.213947746E1,2.846630402E0,-1.345611786E1,2.296823730E0,1.394438280E1
1.214950346E1,3.391048279E0,-1.302845718E1,2.797083435E0,1.375003930E1
1.215952846E1,3.371139679E0,-1.280916321E1,3.235521698E0,1.363480273E1
1.216955446E1,3.007994843E0,-1.241847565E1,3.689826965E0,1.329967644E1
1.217957946E1,2.362986145E0,-1.188244034E1,4.251009979E0,1.283928260E1
1.218960546E1,1.669478302E0,-1.147438889E1,4.148772583E0,1.231507499E1
1.219963046E1,9.159452820E-1,-1.096754288E1,3.031795349E0,1.141567937E1
1.220965646E1,-4.215234375E-1,-1.033630554E1,-2.077679443E-1,1.034698322E1
1.221968246E1,-2.018402710E0,-9.483977966E0,-4.878205719E0,1.085433916E1
1.222970746E1,-2.492017822E0,-8.456364899E0,-5.649851074E0,1.047096353E1
1.223973346E1,-1.857487335E0,-7.584128723E0,-2.492167511E0,8.196350810E0
1.224975846E1,-1.039438477E0,-7.097939758E0,1.200054474E0,7.273328805E0
1.225978446E1,-2.426454163E-1,-7.112609253E0,3.811972961E0,8.073365162E0
1.226980946E1,5.974076843E-1,-7.645950165E0,4.069437561E0,8.682037314E0
1.227983446E1,1.311871948E0,-8.054450684E0,2.074236603E0,8.420073712E0
1.228986046E1,1.678160248E0,-8.293503571E0,1.124461670E0,8.535973134E0
1.229988546E1,1.859283600E0,-8.473878479E0,1.241218872E0,8.763799192E0
1.230991146E1,1.931433563E0,-8.406518555E0,9.813592529E-1,8.681189769E0
1.231993746E1,2.194137268E0,-8.030201111E0,7.979905701E-1,8.362724268E0
1.232996246E1,2.734363861E0,-7.456893311E0,7.527845764E-1,7.978012797E0
1.233998846E1,3.348237305E0,-6.722670135E0,5.288502502E-1,7.528922193E0
1.235001346E1,3.936214600E0,-5.849535828E0,4.150868225E-1,7.062800567E0
1.236003946E1,4.434678040E0,-4.893773346E0,6.014492798E-1,6.631525323E0
1.237006446E1,4.487817535E0,-4.239633636E0,6.017486572E-1,6.202991298E0
1.238009083E1,4.087549896E0,-4.018992462E0,6.596781921E-1,5.770228755E0
1.239011583E1,3.602109375E0,-4.189038849E0,8.431965637E-1,5.588758258E0
1.240014183E1,3.125051422E0,-4.647086334E0,8.454418945E-1,5.663579238E0
1.241016683E1,2.686613159E0,-5.099146271E0,5.095404053E-1,5.786088003E0
1.242019283E1,2.216590576E0,-5.432353363E0,-3.742218018E-3,5.867175713E0
1.243021783E1,1.527573395E0,-5.687422943E0,-5.114863586E-1,5.911165579E0
1.244024383E1,5.278024292E-1,-6.037993927E0,-1.130748596E0,6.165593115E0
1.245026883E1,-5.852828979E-1,-6.828500061E0,-2.251018982E0,7.213740750E0
1.246029483E1,-1.957479401E0,-8.071814575E0,-3.630550232E0,9.064591062E0
1.247031983E1,-3.386707306E0,-9.566905518E0,-4.339176636E0,1.103738744E1
1.248034583E1,-4.477189636E0,-1.107861191E1,-3.687881012E0,1.250525230E1
1.249037083E1,-5.481900330E0,-1.221774307E1,-2.365830231E0,1.359858925E1
1.250039683E1,-6.476432190E0,-1.296888107E1,-1.449585571E0,1.456836808E1
1.251042183E1,-7.030579834E0,-1.348919907E1,-1.116977234E0,1.525238284E1
1.252044783E1,-7.570207672E0,-1.412507675E1,-1.309027863E0,1.607916016E1
1.253047283E1,-8.904233551E0,-1.494267654E1,-3.591930542E0,1.776150113E1
1.254049883E1,-1.021266266E1,-1.555939407E1,-6.300847321E0,1.964927224E1
1.255052383E1,-1.052236862E1,-1.544308594E1,-7.305857391E0,2.006451337E1
1.256054983E1,-9.531578979E0,-1.410322220E1,-6.556365967E0,1.824110218E1
1.257057483E1,-7.524552612E0,-1.190100174E1,-5.371130676E0,1.506989645E1
1.258060083E1,-4.733606415E0,-9.962832184E0,-4.777614899E0,1.202042674E1
1.259062583E1,-2.175875244E0,-8.466992798E0,-4.517156525E0,9.840178006E0
1.260065183E1,-3.356021118E-1,-7.608977051E0,-3.318449249E0,8.307903824E0
1.261067683E1,1.105451202E0,-7.643555145E0,-1.404229889E0,7.849701854E0
1.262070283E1,1.835483093E0,-8.363108826E0,4.508624268E-1,8.574022647E0
1.263072783E1,1.716929626E0,-9.601333923E0,1.741478577E0,9.907886156E0
1.264075383E1,1.356778564E0,-1.064541275E1,1.986369324E0,1.091381344E1
1.265077883E1,1.239123230E0,-1.166434387E1,1.976340179E0,1.189530432E1
1.266080483E1,1.166673889E0,-1.353036346E1,2.197580109E0,1.375722435E1
1.267082983E1,1.043929138E0,-1.576341980E1,2.608325958E0,1.601182551E1
1.268085583E1,9.092092896E-1,-1.779050446E1,3.096610565E0,1.808086578E1
1.269088083E1,2.609074402E-1,-1.835019058E1,2.085912323E0,1.847020837E1
1.270090683E1,-7.053332520E-1,-1.651141434E1,3.357518005E-1,1.652988287E1
1.271093183E1,-8.246351624E-1,-1.326631256E1,-4.227209473E-1,1.329863772E1
1.272095783E1,-5.598358154E-2,-9.897567902E0,-7.551795959E-1,9.926493880E0
1.273098283E1,5.709127808E-1,-7.554190979E0,-4.760101318E-1,7.590673777E0
1.274100883E1,9.345066833E-1,-5.806575165E0,-1.294807434E-1,5.882719027E0
1.275103383E1,1.279988251E0,-4.366419983E0,-5.777984619E-2,4.550530947E0
1.276105983E1,1.543590088E0,-3.397634583E0,6.271957397E-2,3.732361834E0
1.277108483E1,1.758692780E0,-2.914589081E0,2.052232361E-1,3.410270719E0
1.278111083E1,2.121388550E0,-3.388204193E0,3.812571716E-1,4.015666080E0
1.279113583E1,2.567460938E0,-4.940027161E0,9.945318604E-1,5.655512146E0
1.280116183E1,2.665956116E0,-6.699468384E0,1.807191925E0,7.433447470E0
1.281118683E1,2.584824829E0,-8.482410736E0,2.527194672E0,9.220592400E0
1.282121283E1,2.347867584E0,-1.035277130E1,3.142115936E0,1.107091904E1
1.283123783E1,1.899400177E0,-1.209260330E1,3.744613037E0,1.280081648E1
1.284126383E1,1.458566895E0,-1.289089325E1,4.358037415E0,1.368557767E1
1.285128883E1,1.243464203E0,-1.237776031E1,4.846172333E0,1.335067564E1
1.286131483E1,1.173559570E0,-1.139550293E1,4.744833069E0,1.239952297E1
1.287133983E1,9.638456726E-1,-1.052596115E1,4.390819244E0,1.144570445E1
1.288136583E1,6.400689697E-1,-9.780511322E0,3.873644714E0,1.053912773E1
1.289139083E1,3.755690002E-1,-9.361532593E0,2.778971100E0,9.772513747E0
1.290141683E1,1.206491089E-1,-9.446406097E0,1.470392303E0,9.560920347E0
1.291144183E1,-2.784210205E-2,-9.595196686E0,7.680528259E-1,9.625927476E0
1.292146783E1,-1.423539734E-1,-9.662257233E0,4.513114929E-1,9.673839028E0
1.293149283E1,-2.115101624E-1,-9.707014160E0,2.312690735E-1,9.712072170E0
1.294151883E1,-2.953358459E-1,-9.758357391E0,2.649490356E-2,9.762861477E0
1.295154383E1,-4.186793518E-1,-9.808503113E0,-1.047821045E-1,9.817993940E0
1.296156983E1,-5.866300964E-1,-9.749675446E0,-2.131567383E-1,9.769633666E0
1.297159483E1,-7.223977661E-1,-9.645941162E0,-3.441343689E-1,9.679073711E0
1.298162083E1,-1.022823029E0,-9.558522949E0,-6.265969849E-1,9.633491148E0
1.299164583E1,-1.586550751E0,-9.626781006E0,-1.340462494E0,9.848294041E0
1.300167183E1,-2.125130768E0,-9.810748444E0,-1.305884399E0,1.012286026E1
1.301169683E1,-2.458337860E0,-9.770182800E0,-7.445516968E-1,1.010219057E1
1.302172283E1,-2.549647980E0,-9.379644928E0,-6.957531738E-1,9.744871281E0
1.303174783E1,-2.257006531E0,-8.776848450E0,-9.309141541E-1,9.110090469E0
1.304177383E1,-1.634002075E0,-8.426427155E0,-7.981402588E-1,8.620421408E0
1.305179883E1,-9.557624817E-1,-8.518635406E0,-2.278262329E-1,8.575111422E0
1.306182483E1,-4.361929321E-1,-8.806786194E0,3.529660034E-1,8.824643468E0
1.307184983E1,-6.466552734E-2,-9.090446320E0,7.092251587E-1,9.118300074E0
1.308187583E1,1.663041687E-1,-9.310039673E0,9.571096802E-1,9.360585170E0
1.309190083E1,3.583547974E-1,-9.451196136E0,1.149459686E0,9.527580183E0
1.310192683E1,4.879852295E-1,-9.510323181E0,1.359622650E0,9.619404885E0
1.311195183E1,5.984555054E-1,-9.466763763E0,1.563947754E0,9.613724446E0
1.312197783E1,6.716532898E-1,-9.397607574E0,1.715432739E0,9.576474077E0
1.313200383E1,6.661148071E-1,-9.407187653E0,1.866618347E0,9.613696091E0
1.314202883E1,6.185137939E-1,-9.560917969E0,2.015858002E0,9.790678996E0
1.315205483E1,5.758525085E-1,-9.882000275E0,2.135608978E0,1.012651773E1
1.316207983E1,5.212161255E-1,-1.019140686E1,2.241289215E0,1.044795757E1
1.317210583E1,3.573069763E-1,-1.024364822E1,2.260000305E0,1.049607539E1
1.318213083E1,5.239105225E-3,-1.022643402E1,2.176773376E0,1.045554028E1
1.319215683E1,-3.990701294E-1,-1.030561935E1,2.138303375E0,1.053268193E1
1.320218183E1,-8.222401428E-1,-1.047371979E1,2.125280457E0,1.071875469E1
1.321220783E1,-1.293011169E0,-1.061442719E1,1.977537689E0,1.087421711E1
1.322223283E1,-1.782493286E0,-1.067100952E1,1.620679779E0,1.093957629E1
1.323225883E1,-2.195334778E0,-1.059047699E1,1.255588989E0,1.088825980E1
1.324228383E1,-2.425256653E0,-1.051293823E1,8.478369141E-1,1.082231803E1
1.325230983E1,-2.422711945E0,-1.047551605E1,-6.062393188E-2,1.075219257E1
1.326233483E1,-2.449655914E0,-1.066038162E1,-1.485361176E0,1.103860717E1
1.327236083E1,-2.883004761E0,-1.130494125E1,-3.139421539E0,1.208177888E1
1.328238583E1,-3.436553650E0,-1.219723572E1,-3.658092957E0,1.318954526E1
1.329241183E1,-3.525019684E0,-1.274943741E1,-2.690505066E0,1.349861976E1
1.330243683E1,-3.375480652E0,-1.279958313E1,-1.683698730E0,1.334383900E1
1.331246283E1,-3.220103760E0,-1.270932083E1,-6.134243774E-1,1.312525023E1
1.332248783E1,-3.197800140E0,-1.277488449E1,3.685336304E-1,1.317419510E1
1.333251383E1,-3.502865753E0,-1.302606216E1,5.147795105E-1,1.349864297E1
1.334253883E1,-4.579427032E0,-1.367271744E1,-2.085762634E0,1.456930883E1
1.335256483E1,-5.910010071E0,-1.405457336E1,-5.752238159E0,1.629562810E1
1.336258983E1,-5.795198822E0,-1.364457596E1,-4.624034271E0,1.552869845E1
1.337261583E1,-3.632795563E0,-1.285137543E1,-1.029409332E0,1.339457866E1
1.338264071E1,-1.188079376E0,-1.184456909E1,7.911048889E-1,1.193026389E1
1.339266671E1,3.405418396E-1,-1.111513596E1,6.773414612E-1,1.114096080E1
1.340269171E1,1.015787659E0,-1.117276611E1,5.608836365E-1,1.123285884E1
1.341271771E1,1.247954865E0,-1.206191711E1,1.085093536E0,1.217475518E1
1.342274271E1,1.398392029E0,-1.335133575E1,1.545985107E0,1.351309501E1
1.343276871E1,1.736089783E0,-1.460153595E1,1.911674652E0,1.482812732E1
1.344279371E1,2.215692444E0,-1.536899002E1,2.219584351E0,1.568571649E1
1.345281971E1,2.836002502E0,-1.553439606E1,2.507136383E0,1.598893692E1
1.346284471E1,3.470532990E0,-1.534758453E1,2.981200562E0,1.601500881E1
1.347287071E1,3.998036041E0,-1.458536957E1,3.456911316E0,1.551346297E1
1.348289571E1,4.201313324E0,-1.319925201E1,3.725303192E0,1.434395940E1
1.349292171E1,4.071084137E0,-1.198662369E1,3.537593536E0,1.314410292E1
1.350294671E1,3.669020233E0,-1.112830856E1,2.825374603E0,1.205336893E1
1.351297271E1,3.100951538E0,-1.046848068E1,1.815724182E0,1.106805505E1
1.352299771E1,1.883832550E0,-9.889484711E0,-1.272653503E0,1.014743218E1
1.353302371E1,-1.354682922E-1,-9.385033722E0,-5.999374237E0,1.113955568E1
1.354304871E1,-1.040336609E0,-8.940907288E0,-5.561684418E0,1.058085332E1
1.355307471E1,-4.869374084E-1,-8.466244354E0,-8.945397949E-1,8.527285790E0
1.356309971E1,3.665876770E-1,-8.138575745E0,2.895728302E0,8.646157764E0
1.357312571E1,7.547305298E-1,-8.002658386E0,4.431384888E0,9.178743457E0
1.358315071E1,6.661148071E-1,-8.100405121E0,3.948489075E0,9.036085327E0
1.359317671E1,4.044589233E-1,-8.097561035E0,1.411265259E0,8.229565685E0
1.360320171E1,2.963836670E-2,-7.905510406E0,-8.102650452E-1,7.946980726E0
1.361322771E1,-2.501298523E-1,-7.792046356E0,-1.335223389E0,7.909574758E0
1.362325271E1,8.681945801E-3,-7.846982117E0,-7.529342651E-1,7.883026939E0
1.363327871E1,1.318757629E0,-7.891140289E0,-9.145980835E-2,8.001098777E0
1.364330371E1,2.815345459E0,-7.636669464E0,5.424719238E-1,8.157154304E0
1.365332971E1,3.825594635E0,-7.181316376E0,9.788145447E-1,8.195398533E0
1.366335471E1,4.378844147E0,-6.549779663E0,1.003213806E0,7.942312487E0
1.367338071E1,4.663402405E0,-5.882766724E0,5.553451538E-1,7.527461362E0
1.368340571E1,4.658163300E0,-5.413342896E0,-1.142124939E-1,7.142535343E0
1.369343171E1,4.258344727E0,-5.176086273E0,-5.727090454E-1,6.727062105E0
1.370345671E1,3.801794128E0,-4.923711090E0,-8.825646973E-1,6.282952327E0
1.371348271E1,3.400029602E0,-4.735552368E0,-1.203347626E0,5.952621526E0
1.372350871E1,2.965782623E0,-4.730912018E0,-1.626068573E0,5.815624996E0
1.373353371E1,2.407294006E0,-4.988226929E0,-2.046993256E0,5.904883887E0
1.374355971E1,1.606758728E0,-5.358556824E0,-2.512076111E0,6.132400120E0
1.375358471E1,6.004014587E-1,-5.794300690E0,-2.877915344E0,6.497445584E0
1.376361071E1,-5.577401733E-1,-6.445895691E0,-2.538720703E0,6.950233677E0
1.377363571E1,-1.521585846E0,-7.298372955E0,-1.048719177E0,7.528697311E0
1.378366171E1,-2.297272797E0,-8.087531891E0,4.584965515E-1,8.419967546E0
1.379368671E1,-3.293301544E0,-8.885522461E0,1.145567780E0,9.545190936E0
1.380371271E1,-4.313879242E0,-9.836045837E0,2.953358459E-1,1.074451372E1
1.381373771E1,-5.491779785E0,-1.100496506E1,-1.981130219E0,1.245767948E1
1.382376371E1,-7.332352295E0,-1.220442078E1,-4.064946899E0,1.480658873E1
1.383378871E1,-8.519982605E0,-1.302231995E1,-3.998036041E0,1.606720923E1
1.384381471E1,-8.416996765E0,-1.345596817E1,-1.743873596E0,1.596715407E1
1.385383971E1,-8.223299561E0,-1.361284195E1,-2.146536255E-1,1.590528836E1
1.386386571E1,-8.371641083E0,-1.368065094E1,-1.701661377E0,1.612886344E1
1.387389071E1,-8.748557281E0,-1.340462494E1,-4.112697601E0,1.652681173E1
1.388391671E1,-9.035510559E0,-1.245784378E1,-4.802912292E0,1.612160939E1
1.389394171E1,-8.752299500E0,-1.090901459E1,-3.438050537E0,1.440241429E1
1.390396771E1,-7.704777832E0,-9.434131622E0,-1.340761871E0,1.225414556E1
1.391399271E1,-5.178630981E0,-8.150850220E0,5.803431702E-1,9.674263607E0
1.392401871E1,-2.150877228E0,-7.730823669E0,2.005230103E0,8.271206395E0
1.393404371E1,-8.532257080E-2,-8.953181763E0,1.979483643E0,9.169792752E0
1.394406971E1,9.888436890E-1,-1.133802246E1,2.552192688E-1,1.138392296E1
1.395409471E1,2.194436646E0,-1.403556290E1,-3.142115936E0,1.454941478E1
1.396412071E1,4.284091187E0,-1.656664948E1,-1.087338867E1,2.027406948E1
1.397414571E1,3.103945312E0,-1.850751343E1,-1.017973114E1,2.134922612E1
1.398417171E1,1.243015137E0,-1.674986847E1,-1.487307129E0,1.686165066E1
1.399419671E1,9.063652039E-1,-1.494791565E1,2.341131592E0,1.515726154E1
1.400422271E1,5.873785400E-1,-1.298370026E1,2.754871216E0,1.328573676E1
1.401424771E1,9.042695618E-1,-9.995763702E0,2.612966309E0,1.037114210E1
1.402427371E1,1.240620117E0,-7.712411957E0,2.235750732E0,8.125208785E0
1.403429871E1,1.397344208E0,-6.368057556E0,1.789977722E0,6.760824515E0
1.404432471E1,1.432371368E0,-5.600004730E0,1.437460785E0,5.956344032E0
1.405434971E1,1.455872498E0,-5.035528564E0,1.333427124E0,5.408709693E0
1.406437571E1,1.522034912E0,-4.828209686E0,1.326691132E0,5.233384030E0
1.407440071E1,1.338217163E0,-5.954317932E0,1.347946930E0,6.249935051E0
1.408442671E1,1.143322449E0,-8.031697998E0,1.531016235E0,8.255868801E0
1.409445171E1,1.195114746E0,-9.826316071E0,1.791025543E0,1.005945124E1
1.410447771E1,1.369502106E0,-1.112651230E1,1.989512787E0,1.138564768E1
1.411450271E1,1.323248291E0,-1.160925842E1,2.289339294E0,1.190659236E1
1.412452871E1,1.253044281E0,-1.099104401E1,2.740201721E0,1.139657290E1
1.413455371E1,1.364562378E0,-9.777517548E0,2.978057098E0,1.031167804E1
1.414457971E1,1.568588104E0,-8.882977753E0,2.859653320E0,9.462842042E0
1.415460471E1,1.682800598E0,-8.525820465E0,2.614762573E0,9.075153760E0
1.416463071E1,1.617835693E0,-8.651109924E0,2.357447662E0,9.111347581E0
1.417465571E1,1.494192810E0,-9.078620911E0,2.225272522E0,9.466034417E0
1.418468171E1,1.330583038E0,-9.491312714E0,2.226020966E0,9.839239686E0
1.419470671E1,1.189127197E0,-9.679621124E0,2.327060852E0,1.002618077E1
1.420473271E1,1.138083344E0,-9.816137238E0,2.224673767E0,1.012921307E1
1.421475871E1,1.002465363E0,-9.784702606E0,2.073488159E0,1.005209904E1
1.422478371E1,8.430468750E-1,-9.623487854E0,1.827699280E0,9.831720662E0
1.423480971E1,5.848338318E-1,-9.491761780E0,1.377734985E0,9.609043968E0
1.424483471E1,2.321672058E-1,-9.578581238E0,9.217831421E-1,9.625632670E0
1.425486071E1,-1.718426514E-1,-9.899513855E0,5.730084229E-1,9.917572441E0
1.426488571E1,-6.060896301E-1,-1.036923706E1,3.095562744E-1,1.039154690E1
1.427491171E1,-9.999206543E-1,-1.075423645E1,-4.281097412E-2,1.080070719E1
1.428493671E1,-1.262025604E0,-1.080992065E1,-5.390290833E-1,1.089668048E1
1.429496271E1,-1.367855530E0,-1.051189041E1,-1.003662872E0,1.064792036E1
1.430498771E1,-1.364412689E0,-1.002016296E1,-1.647174683E0,1.024590027E1
1.431501371E1,-1.350491638E0,-9.452543335E0,-3.429069214E0,1.014558618E1
1.432503871E1,-1.254840546E0,-9.154064026E0,-4.242777100E0,1.016723515E1
1.433506471E1,-9.571096802E-1,-9.106313324E0,-1.972597961E0,9.366543867E0
1.434508971E1,-8.093669128E-1,-9.172924805E0,-1.655557251E-1,9.210050650E0
1.435511571E1,-6.927593994E-1,-9.364825745E0,8.428971863E-1,9.428168034E0
1.436514071E1,-4.766088867E-1,-9.523346100E0,1.830094299E0,9.709300805E0
1.437516671E1,-2.040257263E-1,-9.441765747E0,2.358794861E0,9.734088561E0
1.438519125E1,6.107299805E-2,-9.252409515E0,2.321672058E0,9.539443008E0
1.439521725E1,2.115101624E-1,-9.183253326E0,2.106120300E0,9.424044828E0
1.440524225E1,3.047662354E-1,-9.255552979E0,1.976789246E0,9.469204777E0
1.441526825E1,4.164340210E-1,-9.423204346E0,1.879491577E0,9.617831670E0
1.442529325E1,5.396278381E-1,-9.640702057E0,1.690135345E0,9.802596179E0
1.443531925E1,6.421646118E-1,-9.809101868E0,1.485810242E0,9.941754720E0
1.444534425E1,7.258406067E-1,-9.841434631E0,1.377884674E0,9.963897147E0
1.445537025E1,7.623646545E-1,-9.781409454E0,1.140927429E0,9.877190197E0
1.446539525E1,4.870870972E-1,-9.841284943E0,7.083270264E-1,9.878758542E0
1.447542125E1,-9.160949707E-2,-1.000654129E1,2.914439392E-1,1.001120375E1
1.448544625E1,-6.487509155E-1,-1.006192612E1,1.261875916E-1,1.008360839E1
1.449547225E1,-1.031504974E0,-9.993668060E0,3.116519165E-1,1.005159344E1
1.450549725E1,-1.234632568E0,-9.959539032E0,7.370672607E-1,1.006280296E1
1.451552325E1,-1.390907593E0,-9.963730316E0,1.127904510E0,1.012337465E1
1.452554825E1,-1.647024994E0,-1.010862900E1,1.491199036E0,1.034991527E1
1.453557425E1,-2.022144928E0,-1.031310379E1,1.764680328E0,1.065660718E1
1.454559925E1,-2.397863617E0,-1.045635590E1,1.892065430E0,1.089334844E1
1.455562525E1,-2.628683624E0,-1.041593994E1,1.861528931E0,1.090261769E1
1.456565025E1,-2.579885101E0,-1.025517426E1,1.538650360E0,1.068605873E1
1.457567625E1,-2.462229767E0,-1.034738251E1,9.604028320E-1,1.067957273E1
1.458570125E1,-2.572101288E0,-1.107022934E1,4.846920776E-1,1.137543885E1
1.459572725E1,-2.688110046E0,-1.192495193E1,1.658551025E-1,1.222529845E1
1.460575225E1,-2.681523743E0,-1.255005203E1,-6.346801758E-2,1.283348759E1
1.461577825E1,-2.619253235E0,-1.298055679E1,-2.080673218E-1,1.324381494E1
1.462580425E1,-2.580034790E0,-1.330148941E1,-4.885839844E-1,1.355820469E1
1.463582925E1,-2.649640045E0,-1.376866791E1,-9.843530273E-1,1.405580874E1
1.464585525E1,-2.744542694E0,-1.434886139E1,-1.560654602E0,1.469210606E1
1.465588025E1,-2.638114014E0,-1.457204727E1,-1.976190491E0,1.494019866E1
1.466590625E1,-2.043101349E0,-1.424707306E1,-3.686384125E0,1.485741504E1
1.467593125E1,-4.355941772E-1,-1.325418777E1,-5.782026215E0,1.446703366E1
1.468595725E1,1.330583038E0,-1.243688736E1,-5.872737579E0,1.381794721E1
1.469598225E1,2.568209381E0,-1.166793640E1,-3.998036041E0,1.259844163E1
1.470600825E1,2.812651062E0,-1.073342972E1,-2.040706329E0,1.128193254E1
1.471603325E1,2.376458130E0,-1.021086639E1,-1.103954315E0,1.054172950E1
1.472605925E1,1.988764343E0,-1.019380188E1,-3.640429688E-1,1.039236776E1
1.473608425E1,1.842518463E0,-1.072699310E1,2.471360779E-1,1.088688806E1
1.474611025E1,1.771715698E0,-1.183873123E1,6.349795532E-1,1.198739891E1
1.475613525E1,2.001487885E0,-1.285436920E1,9.352551270E-1,1.304283188E1
1.476616125E1,2.483485565E0,-1.335432953E1,1.064436493E0,1.362493460E1
1.477618625E1,3.085683289E0,-1.333082840E1,1.013242950E0,1.372075393E1
1.478621225E1,3.500470734E0,-1.321601715E1,9.563612366E-1,1.370514617E1
1.479623725E1,3.574716339E0,-1.314311874E1,9.680369568E-1,1.365493547E1
1.480626325E1,3.328029327E0,-1.272054749E1,9.154962158E-1,1.318052506E1
1.481628825E1,2.822979584E0,-1.192824509E1,8.577163696E-1,1.228771427E1
1.482631425E1,2.039209442E0,-1.130823441E1,8.177494812E-1,1.151968987E1
1.483633925E1,1.122066650E0,-1.086575455E1,6.572831726E-1,1.094329368E1
1.484636525E1,6.174659729E-1,-1.052850586E1,5.057981873E-1,1.055871828E1
1.485639025E1,1.586700439E-1,-1.007195526E1,5.125341797E-1,1.008623568E1
1.486641625E1,-5.683680725E-1,-9.659263458E0,1.450483704E-1,9.677058016E0
1.487644125E1,-1.236877899E0,-9.205107880E0,-6.210585022E-1,9.308576243E0
1.488646725E1,-1.660197601E0,-8.627459106E0,-7.388635254E-1,8.816758249E0
1.489649225E1,-1.775757294E0,-8.122109985E0,-2.380050659E-2,8.313997296E0
1.490651825E1,-1.591490479E0,-7.797285461E0,1.159039764E0,8.042006944E0
1.491654325E1,-1.318907318E0,-7.687413940E0,1.928439789E0,8.034595797E0
1.492656925E1,-9.053173828E-1,-7.617359619E0,2.252665558E0,7.994890196E0
1.493659425E1,-2.406994629E-1,-7.485034790E0,1.725461884E0,7.685109027E0
1.494662025E1,7.366181946E-1,-7.310198364E0,9.713301086E-1,7.411146245E0
1.495664525E1,1.612147522E0,-7.167694702E0,8.213420105E-1,7.392527962E0
1.496667125E1,2.168540497E0,-7.108717346E0,9.309141541E-1,7.490195682E0
1.497669725E1,2.642904053E0,-7.039411469E0,9.891430664E-1,7.583973870E0
1.498672225E1,3.029250641E0,-7.001240845E0,9.467811584E-1,7.687010301E0
1.499674825E1,3.279979248E0,-6.843768311E0,6.358776855E-1,7.615757939E0
1.500677325E1,3.373983765E0,-6.628216553E0,4.501139832E-1,7.451149154E0
1.501679925E1,3.217708740E0,-6.351442108E0,5.971083069E-1,7.144998581E0
1.502682425E1,2.855911102E0,-6.066734161E0,7.574249268E-1,6.747976299E0
1.503685025E1,2.333796844E0,-5.974675598E0,8.408015442E-1,6.469181049E0
1.504687525E1,1.845512238E0,-5.980663147E0,7.421566772E-1,6.302780627E0
1.505690125E1,1.435215454E0,-6.079757080E0,3.957769775E-1,6.259387268E0
1.506692625E1,1.089434509E0,-6.142776031E0,-3.891906738E-3,6.238636074E0
1.507695225E1,7.057823181E-1,-6.188730469E0,-3.119512939E-1,6.236651915E0
1.508697725E1,1.059796143E-1,-6.275400238E0,-4.987628174E-1,6.296081652E0
1.509700325E1,-8.060737610E-1,-6.532116394E0,-7.902067566E-1,6.628931001E0
1.510702825E1,-2.045496368E0,-7.154821472E0,-1.725312195E0,7.638862995E0
1.511705425E1,-3.392395477E0,-8.254883881E0,-3.009641418E0,9.418566580E0
1.512707925E1,-4.496798859E0,-9.460027771E0,-3.096011810E0,1.092239051E1
1.513710525E1,-5.108876038E0,-1.049871780E1,-2.208058319E0,1.188272744E1
1.514713025E1,-5.547314301E0,-1.146196472E1,-1.693129120E0,1.284585604E1
1.515715625E1,-5.513334961E0,-1.220052887E1,-1.527124329E0,1.347523194E1
1.516718125E1,-5.187163239E0,-1.247535736E1,-1.102457428E0,1.355568575E1
1.517720725E1,-5.091811523E0,-1.247535736E1,-1.172062683E0,1.352533980E1
1.518723225E1,-5.364095306E0,-1.253987320E1,-2.512525177E0,1.386847941E1
1.519725825E1,-6.253246307E0,-1.262654297E1,-5.215604095E0,1.502448677E1
1.520728325E1,-7.100484467E0,-1.245604752E1,-6.971752167E0,1.594287702E1
1.521730925E1,-7.283254395E0,-1.212284042E1,-5.876330109E0,1.531470894E1
1.522733425E1,-7.038663025E0,-1.181448166E1,-3.412902832E0,1.416942694E1
1.523736025E1,-6.488407288E0,-1.135044662E1,-1.700463867E0,1.318421955E1
1.524738525E1,-5.375172272E0,-1.048719177E1,-1.570983124E0,1.188871970E1
1.525741125E1,-3.811823273E0,-9.403445435E0,-1.769021301E0,1.029971937E1
1.526743625E1,-2.272424469E0,-8.500672760E0,-8.598120117E-1,8.841076124E0
1.527746225E1,-1.017434235E0,-8.609795837E0,3.635939026E-1,8.677324317E0
1.528748725E1,-1.210981750E-1,-9.430988159E0,1.088536377E0,9.494372748E0
1.529751325E1,3.974235535E-1,-1.021161484E1,1.166374512E0,1.028569164E1
1.530753925E1,5.915698242E-1,-1.130928223E1,9.686357117E-1,1.136609319E1
1.531756425E1,5.845344543E-1,-1.314401688E1,1.022224274E0,1.319665877E1
1.532759025E1,5.607339478E-1,-1.589439743E1,1.361718292E0,1.596247377E1
1.533761525E1,3.658392334E-1,-1.880464554E1,4.983137512E-1,1.881480398E1
1.534764125E1,-2.880010986E-1,-1.815469711E1,-1.750459900E0,1.824116448E1
1.535766625E1,-9.800120544E-1,-1.602447693E1,-3.688330078E0,1.647264591E1
1.536769225E1,-7.532336426E-1,-1.278281799E1,-4.736749878E0,1.365300685E1
1.537771725E1,3.679348755E-1,-9.419162750E0,-3.787124634E0,1.015865719E1
1.538774283E1,8.384065247E-1,-7.914940796E0,-1.107097778E0,8.035849600E0
1.539776783E1,9.294172668E-1,-6.820267181E0,4.492158508E-1,6.897945764E0
1.540779383E1,1.385069733E0,-5.539530487E0,6.074368286E-1,5.742281400E0
1.541781883E1,1.774410095E0,-4.683460693E0,8.351133728E-1,5.077474726E0
1.542784483E1,1.914069672E0,-4.292174377E0,1.148112488E0,4.837828633E0
1.543786983E1,2.218835907E0,-4.502187653E0,1.698068848E0,5.298713453E0
1.544789583E1,2.867287445E0,-5.753285980E0,2.046993256E0,6.746244752E0
1.545792083E1,3.161874847E0,-7.527097321E0,2.361489258E0,8.498898643E0
1.546794683E1,3.231929169E0,-9.068741455E0,2.652334442E0,9.986106134E0
1.547797183E1,3.214714966E0,-1.031190628E1,3.088826752E0,1.123435152E1
1.548799783E1,3.215613098E0,-1.117201767E1,3.475323029E0,1.213392008E1
1.549802283E1,3.047662354E0,-1.155926239E1,3.748654633E0,1.252825624E1
1.550804883E1,2.691852264E0,-1.123279129E1,3.962110748E0,1.221146962E1
1.551807383E1,2.342927856E0,-1.023062531E1,3.951632538E0,1.121474051E1
1.552809983E1,2.173480225E0,-9.165739746E0,3.824247437E0,1.016659578E1
1.553812483E1,2.013163605E0,-8.678502960E0,3.502716064E0,9.572787533E0
1.554815083E1,1.916165314E0,-8.745862885E0,3.112327881E0,9.478839166E0
1.555817583E1,1.648970947E0,-9.435029755E0,2.661315765E0,9.940900023E0
1.556820183E1,1.196012878E0,-1.023631348E1,2.207609253E0,1.053973904E1
1.557822683E1,8.656498718E-1,-1.067250641E1,1.812880096E0,1.085993909E1
1.558825283E1,6.529421997E-1,-1.074300980E1,1.408271484E0,1.085457607E1
1.559827783E1,4.519102478E-1,-1.073836945E1,1.024319916E0,1.079657504E1
1.560830383E1,3.290158081E-1,-1.061996567E1,8.565188599E-1,1.065952845E1
1.561832983E1,8.083190918E-2,-1.046324158E1,8.226892090E-1,1.049584564E1
1.562835483E1,-3.603007507E-1,-1.044482986E1,4.966671753E-1,1.046283737E1
1.563838083E1,-8.319699097E-1,-1.048614395E1,-6.361770630E-2,1.051928876E1
1.564840583E1,-1.204694824E0,-1.038196060E1,-5.086422729E-1,1.046399123E1
1.565843183E1,-1.506167908E0,-1.012943573E1,-1.191971283E0,1.030993722E1
1.566845683E1,-2.279459839E0,-9.824669495E0,-4.443359985E0,1.102104876E1
1.567848283E1,-2.969375153E0,-9.677076416E0,-6.722071381E0,1.215110038E1
1.568850783E1,-2.116748199E0,-9.424850922E0,-2.527344360E0,9.984783791E0
1.569853383E1,-1.143921204E0,-9.081464996E0,-8.726852417E-2,9.153642881E0
1.570855883E1,-6.429130554E-1,-8.847351837E0,7.604187012E-2,8.871006374E0
1.571858483E1,-2.877017212E-1,-8.950936432E0,4.492158508E-1,8.966818286E0
1.572860983E1,-9.011260986E-2,-9.379644928E0,9.226812744E-1,9.425348799E0
1.573863583E1,1.200503540E-1,-9.850715332E0,1.445843353E0,9.956980850E0
1.574866083E1,4.805007935E-1,-1.006776398E1,1.762285309E0,1.023212598E1
1.575868683E1,8.652008057E-1,-1.015682877E1,1.932631073E0,1.037520149E1
1.576871183E1,1.174607391E0,-1.031100815E1,1.940714264E0,1.055760216E1
1.577873783E1,1.439556427E0,-1.037836807E1,1.886227570E0,1.064615898E1
1.578876283E1,1.681902466E0,-1.015802628E1,1.889071655E0,1.046818444E1
1.579878883E1,1.955383759E0,-9.684860229E0,1.891167297E0,1.005964995E1
1.580881383E1,2.188898163E0,-9.275611267E0,1.893861694E0,9.716735648E0
1.581883983E1,2.379751282E0,-9.054221649E0,1.873653717E0,9.547393576E0
1.582886483E1,2.456242218E0,-9.034313049E0,1.865570526E0,9.546323454E0
1.583889083E1,2.422262878E0,-9.142088928E0,1.852996674E0,9.637361885E0
1.584891583E1,2.276466064E0,-9.378597107E0,1.787882080E0,9.815136462E0
1.585894183E1,1.946103058E0,-9.663604431E0,1.724114685E0,1.000725433E1
1.586896783E1,1.513802032E0,-9.844428406E0,1.577868805E0,1.008434615E1
1.587899283E1,1.122964783E0,-9.891879730E0,1.465751953E0,1.006274134E1
1.588901883E1,8.560697937E-1,-9.849068756E0,1.410516815E0,9.986319069E0
1.589904383E1,7.144642639E-1,-9.778715057E0,1.311572571E0,9.892115546E0
1.590906983E1,6.265969849E-1,-9.800419922E0,1.228794708E0,9.897009188E0
1.591909483E1,5.533992004E-1,-9.956096191E0,1.141675873E0,1.003660928E1
1.592912083E1,5.004093933E-1,-1.013422577E1,1.042881317E0,1.020002661E1
1.593914583E1,4.598437500E-1,-1.020622604E1,9.904902649E-1,1.026448135E1
1.594917183E1,4.186793518E-1,-1.018062927E1,1.016536102E0,1.023981691E1
1.595919683E1,3.724255371E-1,-9.992171173E0,1.055754547E0,1.005469061E1
1.596922283E1,2.722837830E-1,-9.895921326E0,1.075812836E0,9.957950120E0
1.597924783E1,1.933978271E-1,-1.003333557E1,1.119971008E0,1.009750268E1
1.598927383E1,5.703140259E-2,-1.027463379E1,1.085542603E0,1.033197729E1
1.599929883E1,-1.161584473E-1,-1.040875488E1,1.017134857E0,1.045897865E1
1.600932483E1,-3.411405945E-1,-1.039139099E1,8.954379272E-1,1.043547760E1
1.601934983E1,-5.688171387E-1,-1.032717453E1,7.801776123E-1,1.037221113E1
1.602937583E1,-8.601113892E-1,-1.040097107E1,5.939648438E-1,1.045336238E1
1.603940083E1,-1.178050232E0,-1.066517166E1,3.348536682E-1,1.073526040E1
1.604942683E1,-1.334774323E0,-1.083536774E1,8.307723999E-2,1.091758757E1
1.605945183E1,-1.249751129E0,-1.081935104E1,-7.304809570E-2,1.089153666E1
1.606947783E1,-7.641609192E-1,-1.064945435E1,-2.698887634E-1,1.068024624E1
1.607950283E1,-1.073268127E-1,-1.053105057E1,-7.653584290E-1,1.055937113E1
1.608952883E1,7.351213074E-1,-1.056233551E1,-2.663261719E0,1.091770570E1
1.609955383E1,2.076332245E0,-1.050635193E1,-4.779261475E0,1.172757122E1
1.610957983E1,3.068020020E0,-1.049976562E1,-3.624263306E0,1.152358926E1
1.611960583E1,3.141666870E0,-1.062804886E1,-1.172212372E0,1.114448631E1
1.612963083E1,2.758164368E0,-1.077594131E1,4.800517273E-1,1.113368005E1
1.613965683E1,2.601290588E0,-1.076441528E1,1.410965881E0,1.116378851E1
1.614968183E1,2.862048340E0,-1.031699570E1,1.770218811E0,1.085197657E1
1.615970783E1,3.293002167E0,-9.733808441E0,1.805844727E0,1.043321452E1
1.616973283E1,3.530258789E0,-9.327403564E0,1.895957336E0,1.015174067E1
1.617975883E1,3.547023926E0,-9.085356903E0,2.049537964E0,9.966227704E0
1.618978383E1,3.484004974E0,-8.946146393E0,2.336940308E0,9.880947118E0
1.619980983E1,3.498075714E0,-8.901090088E0,2.651735687E0,9.924597756E0
1.620983483E1,3.554508362E0,-8.943302307E0,2.486778717E0,9.939882003E0
1.621986083E1,3.422033844E0,-9.070986786E0,2.044897614E0,9.908315858E0
1.622988583E1,3.260968781E0,-9.314680023E0,1.541943512E0,9.988732208E0
1.623991183E1,3.126847687E0,-9.726324005E0,1.081051941E0,1.027361808E1
1.624993683E1,3.167862396E0,-1.000833755E1,7.297325134E-1,1.052305480E1
1.625996283E1,3.246898041E0,-1.023466690E1,5.099894714E-1,1.074945779E1
1.626998783E1,3.212769012E0,-1.045381119E1,2.866539001E-1,1.094011990E1
1.628001383E1,3.139122162E0,-1.056488022E1,-2.365081787E-2,1.102140378E1
1.629003883E1,3.115621033E0,-1.053823563E1,-9.568103027E-1,1.103072937E1
1.630006483E1,3.163671112E0,-1.051114197E1,-5.171296234E0,1.213405230E1
1.631008983E1,3.106639709E0,-1.062580353E1,-8.893605652E0,1.420053282E1
1.632011583E1,3.382216644E0,-1.065259781E1,-6.355783081E0,1.285741841E1
1.633014083E1,3.649560699E0,-1.084704346E1,-2.243235168E0,1.166232177E1
1.634016683E1,3.530258789E0,-1.119402191E1,3.074606323E-1,1.174152399E1
1.635019283E1,3.363655243E0,-1.114672028E1,1.623224487E0,1.175578186E1
1.636021783E1,3.275039520E0,-1.069136719E1,1.952539673E0,1.135093068E1
1.637024383E1,3.178190918E0,-1.019080811E1,1.836081848E0,1.083165102E1
1.638026883E1,3.099754028E0,-9.756710815E0,1.681902466E0,1.037452056E1
1.639029562E1,2.969524841E0,-9.507179718E0,1.525328064E0,1.007626765E1
1.640032062E1,2.647095337E0,-9.450447693E0,1.427581329E0,9.917462567E0
1.641034663E1,2.309547272E0,-9.492510223E0,1.361119537E0,9.863792645E0
1.642037162E1,1.960173798E0,-9.460476837E0,1.340612183E0,9.753980948E0
1.643039762E1,1.755249939E0,-9.351653137E0,1.273701324E0,9.599824676E0
1.644042262E1,1.576371918E0,-9.286388855E0,1.147364044E0,9.488857183E0
1.645044863E1,1.403182068E0,-9.281149750E0,1.055754547E0,9.445807443E0
1.646047362E1,1.122216339E0,-9.353748779E0,8.828640747E-1,9.462105195E0
1.647049962E1,7.722441101E-1,-9.573042755E0,5.707630920E-1,9.621085129E0
1.648052462E1,2.947370911E-1,-9.873018951E0,1.576222229E-1,9.878674908E0
1.649055063E1,-1.764830017E-1,-1.010803024E1,-1.532812500E-1,1.011073275E1
1.650057562E1,-5.646258545E-1,-1.027134064E1,-9.145980835E-2,1.028725453E1
1.651060162E1,-6.825805664E-1,-1.024050476E1,5.731581116E-1,1.027922002E1
1.652062662E1,-7.228468323E-1,-1.012269974E1,1.421893158E0,1.024760156E1
