"Time (s)","Acceleration x (m/s^2)","Acceleration y (m/s^2)","Acceleration z (m/s^2)","Absolute acceleration (m/s^2)"
9.986333316E-3,-1.024289978E1,-2.484234009E0,1.053658905E0,1.059238460E1
2.001233329E-2,-1.023960663E1,-2.512525177E0,1.171763306E0,1.060826828E1
3.003833338E-2,-1.016281631E1,-2.537223816E0,1.337618408E0,1.055980886E1
4.006433336E-2,-1.011491592E1,-2.545606384E0,1.498384094E0,1.053739963E1
5.009033333E-2,-1.003109024E1,-2.563119965E0,1.644330597E0,1.048313782E1
6.011633330E-2,-9.983938293E0,-2.595602417E0,1.743274841E0,1.046208311E1
7.014233328E-2,-1.028645920E1,-2.557132416E0,1.883682861E0,1.076561332E1
8.016833337E-2,-1.056188644E1,-2.338736572E0,1.971550140E0,1.099591488E1
9.019433334E-2,-1.057460999E1,-2.151925049E0,1.947150879E0,1.096560779E1
1.002193333E-1,-1.065020279E1,-2.016307068E0,1.838177490E0,1.099414436E1
1.102453333E-1,-1.064226929E1,-1.932182007E0,1.776805115E0,1.096121614E1
1.202713334E-1,-1.050051407E1,-1.866019592E0,1.697320404E0,1.079924633E1
1.302973334E-1,-1.042327469E1,-1.874851227E0,1.584305420E0,1.070839605E1
1.403233333E-1,-1.047312103E1,-1.840123444E0,1.442400513E0,1.073092902E1
1.503493333E-1,-1.056757462E1,-1.715881805E0,1.316212921E0,1.078657963E1
1.603753333E-1,-1.070738388E1,-1.755249939E0,1.158890076E0,1.091201164E1
1.704013334E-1,-1.080587906E1,-1.741328888E0,1.068029022E0,1.099726941E1
1.804273333E-1,-1.092667786E1,-1.688638458E0,1.154698792E0,1.111652455E1
1.904533333E-1,-1.110780121E1,-1.673819275E0,1.212029572E0,1.129840406E1
2.004793333E-1,-1.120450012E1,-1.641486511E0,1.111588440E0,1.137852933E1
2.105053334E-1,-1.118489090E1,-1.672472076E0,1.121318207E0,1.136469541E1
2.205313334E-1,-1.112321915E1,-1.696272583E0,1.253044281E0,1.132137204E1
2.305573333E-1,-1.114462463E1,-1.743125153E0,1.334774323E0,1.135881887E1
2.405833333E-1,-1.113579300E1,-1.794917450E0,1.403032379E0,1.136644686E1
2.506093333E-1,-1.111079498E1,-1.919757843E0,1.337169342E0,1.135443777E1
2.606353334E-1,-1.108534790E1,-2.077679443E0,1.453327789E0,1.137162484E1
2.706613333E-1,-1.094883179E1,-2.181413727E0,1.656605072E0,1.128626704E1
2.806873333E-1,-1.083402054E1,-2.274969177E0,1.897454224E0,1.123173265E1
2.907133333E-1,-1.073821976E1,-2.390079803E0,2.118095398E0,1.120304303E1
3.007393333E-1,-1.068343369E1,-2.538571014E0,2.292632446E0,1.121767630E1
3.107653334E-1,-1.061831909E1,-2.595752106E0,2.340383148E0,1.117873081E1
3.207913333E-1,-1.049796936E1,-2.653232574E0,2.150877228E0,1.103962303E1
3.308173333E-1,-1.041698776E1,-2.762505341E0,1.944456482E0,1.095107213E1
3.408433333E-1,-1.034768188E1,-2.833158417E0,2.024539948E0,1.091787841E1
3.508693334E-1,-1.013452515E1,-2.785108337E0,2.148631897E0,1.072763009E1
3.608953333E-1,-9.994266815E0,-2.749632111E0,2.061513062E0,1.056861779E1
3.709213333E-1,-1.000145187E1,-2.746488647E0,1.857187958E0,1.053666867E1
3.809473333E-1,-1.008123596E1,-2.773432617E0,1.634301453E0,1.058273066E1
3.909733333E-1,-1.027313690E1,-2.814896393E0,1.669627991E0,1.078186631E1
4.009993334E-1,-1.025008484E1,-2.767594757E0,1.728605347E0,1.075694642E1
4.110253333E-1,-1.008048752E1,-2.793191528E0,1.784289551E0,1.061140126E1
4.210513333E-1,-9.858349457E0,-2.883453827E0,1.889371033E0,1.044371021E1
4.310773333E-1,-9.583071899E0,-2.980751495E0,1.885928192E0,1.021160475E1
4.411033334E-1,-9.302555237E0,-2.973716125E0,1.825753326E0,9.935486739E0
4.511293333E-1,-9.153764648E0,-3.133733368E0,2.011067963E0,9.882109411E0
4.611553333E-1,-8.994346161E0,-3.192261658E0,2.112856293E0,9.775119389E0
4.711813333E-1,-8.765023041E0,-3.027454376E0,2.162702637E0,9.521995148E0
4.812073333E-1,-8.687783661E0,-3.081941071E0,2.226470032E0,9.483307150E0
4.912333334E-1,-8.590485992E0,-3.117417297E0,2.158810730E0,9.390165279E0
5.012593333E-1,-8.488398285E0,-3.102897491E0,2.021546173E0,9.261075921E0
5.112853333E-1,-8.439150696E0,-3.093317413E0,1.978136444E0,9.203309235E0
5.213113333E-1,-8.391699371E0,-3.041525116E0,1.863025818E0,9.118243173E0
5.313373334E-1,-8.395890656E0,-2.987188110E0,1.744322662E0,9.080580062E0
5.413633334E-1,-8.336464233E0,-2.930905151E0,1.804946594E0,9.019128180E0
5.513893333E-1,-8.166717224E0,-2.840642853E0,1.849404144E0,8.842217919E0
5.614153333E-1,-8.144413605E0,-2.851719818E0,1.697619781E0,8.794639948E0
5.714413333E-1,-8.184380493E0,-2.874472504E0,1.615141296E0,8.823568305E0
5.814673334E-1,-8.128097534E0,-2.751128998E0,1.478176117E0,8.707449967E0
5.914933333E-1,-8.172704773E0,-2.596350861E0,1.390907593E0,8.687276042E0
6.015193333E-1,-8.447982330E0,-2.415826263E0,1.393751678E0,8.896469284E0
6.115453333E-1,-8.906628571E0,-2.168540497E0,1.439406738E0,9.279142856E0
6.215713334E-1,-9.612560577E0,-1.929637299E0,1.429377594E0,9.907973620E0
6.315973334E-1,-1.032687515E1,-1.626068573E0,1.296004944E0,1.053413870E1
6.416233333E-1,-1.075169174E1,-1.280736694E0,1.171164551E0,1.089085801E1
6.516483333E-1,-1.090497299E1,-9.279203796E-1,1.115330658E0,1.100106516E1
6.616743333E-1,-1.079195801E1,-5.825885010E-1,1.405726776E0,1.089870794E1
6.717003334E-1,-1.046264282E1,-2.384541321E-1,1.445993042E0,1.056478353E1
6.817263333E-1,-1.024529480E1,-7.155120850E-2,1.366957397E0,1.033633192E1
6.917523333E-1,-1.007764343E1,1.134640503E-1,1.367406464E0,1.017062297E1
7.017783333E-1,-9.904303894E0,2.796185303E-1,1.404678955E0,1.000732457E1
7.118043334E-1,-9.702523499E0,3.944297791E-1,1.562899933E0,9.835506763E0
7.218303334E-1,-9.523944855E0,5.031037903E-1,1.920655975E0,9.728697672E0
7.318563333E-1,-9.264534302E0,6.951544189E-1,2.286345520E0,9.567769402E0
7.418823333E-1,-8.922794952E0,8.427474976E-1,2.529440002E0,9.312602205E0
7.519083333E-1,-8.570727081E0,8.771759033E-1,2.632276154E0,9.008644627E0
7.619343334E-1,-8.307723999E0,8.391549683E-1,2.764900360E0,8.795858861E0
7.719603333E-1,-8.113428040E0,8.328680420E-1,2.880310364E0,8.649715112E0
7.819863333E-1,-7.949967957E0,8.617579651E-1,2.997067566E0,8.539732507E0
7.920123333E-1,-7.770940247E0,8.146060181E-1,3.203488312E0,8.444728098E0
8.020383334E-1,-7.560178528E0,7.415579224E-1,3.356769562E0,8.305065287E0
8.120643334E-1,-7.381899261E0,6.159690857E-1,3.389850769E0,8.146345368E0
8.220903333E-1,-7.196285248E0,4.519102478E-1,3.367247772E0,7.957958394E0
8.321163333E-1,-7.016509094E0,2.613565063E-1,3.276237030E0,7.748124687E0
8.421423333E-1,-6.913223877E0,9.415420532E-2,3.204835510E0,7.620531480E0
8.521683334E-1,-6.853947144E0,-1.074765015E-1,3.176993408E0,7.555225328E0
8.621943333E-1,-6.822063446E0,-2.691403198E-1,3.094215546E0,7.495809230E0
8.722203333E-1,-6.875352631E0,-4.418811035E-1,2.992277527E0,7.511288671E0
8.822463333E-1,-7.004084930E0,-6.170169067E-1,3.050805817E0,7.664550326E0
8.922723334E-1,-7.111711121E0,-6.962022400E-1,3.118016052E0,7.796355349E0
9.022983334E-1,-7.110962677E0,-6.953041077E-1,3.084336090E0,7.782182670E0
9.123243333E-1,-7.091652832E0,-8.014334106E-1,3.039429474E0,7.757059168E0
9.223503333E-1,-7.056026917E0,-9.556127930E-1,3.050356750E0,7.746314476E0
9.323763333E-1,-7.039112091E0,-1.084345093E0,3.016676788E0,7.734677896E0
9.424023334E-1,-7.041207733E0,-1.273551636E0,2.982847137E0,7.752284641E0
9.524283333E-1,-6.999743958E0,-1.458267517E0,2.967728577E0,7.741470954E0
9.624543333E-1,-6.930587769E0,-1.646276550E0,2.903811493E0,7.692554484E0
9.724803333E-1,-6.902595978E0,-1.847757568E0,2.824027405E0,7.683434782E0
9.825063333E-1,-6.935377808E0,-2.038610687E0,2.700534210E0,7.716753455E0
9.925323334E-1,-7.166796570E0,-2.207758942E0,2.915038147E0,8.045782747E0
1.002558333E0,-7.473658447E0,-2.319726105E0,3.084785156E0,8.411456428E0
1.012584333E0,-7.543862457E0,-2.373015289E0,3.056044922E0,8.478235247E0
1.022610333E0,-7.643555145E0,-2.590812378E0,2.774929504E0,8.534428967E0
1.032636333E0,-7.877069550E0,-3.015778656E0,2.595153351E0,8.824849376E0
1.042662333E0,-8.154592438E0,-3.304079132E0,2.562521210E0,9.164105613E0
1.052688333E0,-8.413254547E0,-3.417243805E0,2.611469421E0,9.448818965E0
1.062714333E0,-8.729846191E0,-3.538491669E0,2.619702301E0,9.777217291E0
1.072740333E0,-8.911568298E0,-3.698658600E0,2.605182495E0,9.994153331E0
1.082766333E0,-8.891809387E0,-3.780089264E0,2.345622253E0,9.942599900E0
1.092792333E0,-9.132957916E0,-4.121080170E0,2.182311859E0,1.025459444E1
1.102817333E0,-9.769284668E0,-4.473148041E0,2.010768585E0,1.093120152E1
1.112843333E0,-1.023601410E1,-4.320166168E0,1.704206085E0,1.124029087E1
1.122869333E0,-1.003887405E1,-3.794609070E0,1.419049072E0,1.082551387E1
1.132895333E0,-1.020353165E1,-4.236490173E0,1.394949188E0,1.113578871E1
1.142921333E0,-1.056892181E1,-4.702471161E0,1.379381561E0,1.164980845E1
1.152947333E0,-1.076830719E1,-5.211562500E0,1.554367676E0,1.206370102E1
1.162973333E0,-1.090272766E1,-5.854774933E0,1.764231262E0,1.250041487E1
1.172999333E0,-1.128158981E1,-6.199508057E0,1.682201843E0,1.298221753E1
1.183025333E0,-1.170041885E1,-6.424190826E0,1.493893433E0,1.343137174E1
1.193051333E0,-1.211176346E1,-6.314169617E0,2.367177429E0,1.386243417E1
1.203077333E0,-1.254077133E1,-6.144721985E0,3.313210144E0,1.435290616E1
1.213103333E0,-1.278880554E1,-6.157744904E0,3.608246613E0,1.464550488E1
1.223129333E0,-1.272054749E1,-6.037095795E0,3.456761627E0,1.449855355E1
1.233155333E0,-1.232492020E1,-5.745801544E0,3.220103760E0,1.397451113E1
1.243181333E0,-1.204081100E1,-5.608237610E0,3.074306946E0,1.363395841E1
1.253207333E0,-1.180175812E1,-5.636229401E0,2.882256317E0,1.339238508E1
1.263233333E0,-1.181957108E1,-6.090085602E0,2.303260345E0,1.349431033E1
1.273259333E0,-1.180340469E1,-6.448290710E0,1.600920868E0,1.354487959E1
1.283285333E0,-1.135748199E1,-6.061345367E0,1.206491089E0,1.293011700E1
1.293311333E0,-1.111229187E1,-5.920937347E0,8.479866028E-1,1.261981026E1
1.303337333E0,-1.088880661E1,-5.883365479E0,6.270460510E-1,1.239246890E1
1.313363333E0,-1.096170502E1,-6.534810791E0,6.364764404E-1,1.277763011E1
1.323389333E0,-1.116348541E1,-7.252268829E0,4.700225830E-1,1.332065055E1
1.333415333E0,-1.138876694E1,-7.563022614E0,6.653663635E-1,1.368744081E1
1.343441333E0,-1.153755753E1,-7.586673431E0,1.048120422E0,1.384815525E1
1.353467333E0,-1.143621826E1,-7.495063934E0,1.244512024E0,1.372996292E1
1.363493333E0,-1.153665939E1,-7.470514984E0,1.569336548E0,1.383350719E1
1.373519333E0,-1.159264297E1,-7.554789734E0,1.667831726E0,1.393721212E1
1.383545333E0,-1.119731506E1,-7.629634094E0,1.665586395E0,1.365156984E1
1.393571333E0,-1.031819321E1,-7.054979095E0,1.434167633E0,1.258152129E1
1.403597333E0,-8.546776886E0,-5.134023743E0,1.417402496E0,1.007048285E1
1.413623333E0,-7.372019806E0,-3.988455963E0,1.954186249E0,8.606584740E0
1.423649333E0,-7.415878601E0,-4.226461029E0,1.856439514E0,8.735250193E0
1.433675333E0,-7.661068726E0,-4.509522400E0,1.421893158E0,9.002752160E0
1.443701333E0,-7.755522308E0,-4.398303680E0,1.546733551E0,9.049065489E0
1.453727333E0,-7.966284027E0,-4.262685699E0,1.672771454E0,9.188598093E0
1.463752583E0,-8.237070923E0,-4.369862823E0,1.328337708E0,9.418573116E0
1.473778583E0,-8.214467926E0,-4.499493256E0,1.016236725E0,9.421022235E0
1.483804583E0,-7.962691498E0,-4.510869598E0,7.017407227E-1,9.178498813E0
1.493830583E0,-7.590116272E0,-4.683460693E0,1.338217163E-1,8.919785723E0
1.503855583E0,-7.484735413E0,-5.099745026E0,-1.669029236E-1,9.058505401E0
1.513881583E0,-7.133116608E0,-5.377866669E0,-4.652325439E-1,8.945347604E0
1.523907583E0,-6.576573944E0,-5.569767609E0,-5.227130127E-1,8.634052638E0
1.533933583E0,-6.146518250E0,-5.696254578E0,-3.845503235E-1,8.388973820E0
1.543959583E0,-5.858966217E0,-5.487738190E0,3.832031250E-2,8.027715990E0
1.553985583E0,-6.099366302E0,-5.635480957E0,3.378474426E-1,8.311140463E0
1.564011583E0,-6.547085266E0,-6.416107635E0,3.150947571E-1,9.172243312E0
1.574037583E0,-6.697971497E0,-6.491700439E0,1.773811340E-1,9.329333354E0
1.584063583E0,-6.790030060E0,-6.252946930E0,-7.574249268E-2,9.230904097E0
1.594089583E0,-6.840774536E0,-6.009104004E0,-2.459385681E-1,9.108568107E0
1.604115583E0,-6.768923950E0,-5.654940491E0,-3.903881836E-1,8.828877977E0
1.614141583E0,-6.738387451E0,-5.310357056E0,-3.646417236E-1,8.587125310E0
1.624167583E0,-6.780899048E0,-5.037624207E0,-5.065466309E-1,8.462555113E0
1.634193583E0,-6.792425079E0,-4.904850311E0,-2.177970886E-1,8.381051879E0
1.644219583E0,-6.732549591E0,-4.897665253E0,2.303709412E-1,8.328710566E0
1.654245583E0,-6.658753052E0,-4.881349182E0,5.783972168E-1,8.276539457E0
1.664271583E0,-6.794520721E0,-5.050647125E0,9.482780457E-1,8.519024561E0
1.674297583E0,-7.064259796E0,-5.408253479E0,1.223555603E0,8.980537872E0
1.684323583E0,-7.052284698E0,-5.654491425E0,1.471440125E0,9.158227382E0
1.694349583E0,-6.994055786E0,-5.668412476E0,1.303788757E0,9.096569763E0
1.704375583E0,-7.000791779E0,-5.883215790E0,1.356179810E0,9.244595028E0
1.714401583E0,-6.706503754E0,-5.792803802E0,1.588646393E0,9.003197535E0
1.724427583E0,-6.378236389E0,-5.409001923E0,1.268761597E0,8.458661669E0
1.734453583E0,-6.218817902E0,-5.367089081E0,8.824150085E-1,8.261839840E0
1.744479583E0,-6.176006927E0,-5.499264221E0,5.307962036E-1,8.286538068E0
1.754505583E0,-6.025869141E0,-5.487139435E0,-1.121168518E-1,8.150605393E0
1.764531583E0,-6.023474121E0,-5.342091064E0,-4.340972900E-1,8.062792189E0
1.774557583E0,-6.157295837E0,-5.133275299E0,-2.404000854E-1,8.020012439E0
1.784583583E0,-6.201304321E0,-4.836741943E0,-1.841171265E-1,7.866647763E0
1.794609583E0,-6.260431366E0,-4.682412872E0,-3.442840576E-1,7.825376841E0
1.804635583E0,-6.237678680E0,-4.604425049E0,-5.951623535E-1,7.775833304E0
1.814661583E0,-6.325246582E0,-4.455933838E0,-5.143304443E-1,7.754265052E0
1.824687583E0,-6.415957947E0,-4.236340485E0,-2.386038208E-1,7.692075719E0
1.834713583E0,-6.431076508E0,-4.032913513E0,-1.011895752E-1,7.591664889E0
1.844739583E0,-6.609804840E0,-3.985761566E0,1.302291870E-2,7.718548107E0
1.854764583E0,-6.709796906E0,-3.970493317E0,-3.010240173E-1,7.802359076E0
1.864790583E0,-6.667135620E0,-4.042493591E0,-6.767427063E-1,7.826265553E0
1.874816583E0,-6.694977722E0,-4.202510834E0,-5.869294739E-1,7.926431115E0
1.884842583E0,-6.820117493E0,-4.328698425E0,-3.291654968E-1,8.084552096E0
1.894868583E0,-7.137158203E0,-4.440216522E0,-1.646575928E-1,8.407238673E0
1.904894583E0,-7.403604126E0,-4.572092285E0,-2.665956116E-1,8.705656502E0
1.914920583E0,-7.576644287E0,-4.762196960E0,-3.076103210E-1,8.954255003E0
1.924946583E0,-7.810308380E0,-4.825964355E0,-8.532257080E-2,9.181401249E0
1.934972583E0,-8.348289642E0,-4.812192993E0,7.559280396E-2,9.636226213E0
1.944998583E0,-9.180858307E0,-4.755161591E0,-1.811233521E-2,1.033924799E1
1.955024583E0,-1.010728180E1,-4.743785248E0,-2.833607483E-1,1.116874824E1
1.965050583E0,-1.110256210E1,-4.748874664E0,-2.811154175E-1,1.207881293E1
1.975076583E0,-1.157662628E1,-4.710404663E0,-3.245251465E-1,1.250245995E1
1.985102583E0,-1.177032349E1,-4.938380585E0,-4.616400146E-1,1.277267510E1
1.995128583E0,-1.200219131E1,-5.514083405E0,-4.079017639E-1,1.321454108E1
2.005154583E0,-1.219888229E1,-6.169121246E0,-4.150868225E-1,1.367636952E1
2.015180583E0,-1.249406845E1,-6.827003174E0,-2.360591125E-1,1.423957312E1
2.025206583E0,-1.270917114E1,-7.177873535E0,1.850152588E-1,1.459723023E1
2.035232583E0,-1.272863068E1,-7.080126801E0,7.376660156E-1,1.458390845E1
2.045258583E0,-1.278865585E1,-6.581214294E0,1.192719727E0,1.443207125E1
2.055284583E0,-1.304282730E1,-5.951024780E0,1.319356384E0,1.439690040E1
2.065310583E0,-1.327619202E1,-5.406307526E0,1.124311981E0,1.437878691E1
2.075336583E0,-1.341255844E1,-4.901108093E0,8.309220886E-1,1.430412584E1
2.085362583E0,-1.336795120E1,-4.451143799E0,3.809577942E-1,1.409467734E1
2.095388583E0,-1.318323532E1,-4.163741455E0,-9.460327148E-2,1.382546152E1
2.105414583E0,-1.292846512E1,-4.022884369E0,-4.647834778E-1,1.354787189E1
2.115440583E0,-1.245050903E1,-3.982767792E0,-6.932084656E-1,1.309038397E1
2.125466583E0,-1.179801590E1,-4.046535187E0,-6.409671021E-1,1.248913388E1
2.135492583E0,-1.112756012E1,-4.183650055E0,-4.064048767E-1,1.189498579E1
2.145518583E0,-1.062580353E1,-4.407734070E0,-1.802252197E-1,1.150514239E1
2.155544583E0,-1.043794418E1,-4.706363068E0,5.029541016E-2,1.145002453E1
2.165570583E0,-1.031490005E1,-4.912634125E0,2.857557678E-1,1.142859543E1
2.175596583E0,-1.023975632E1,-5.014721832E0,5.340893555E-1,1.141425845E1
2.185622583E0,-1.018482056E1,-5.107828217E0,7.318281555E-1,1.141735746E1
2.195648583E0,-1.026595184E1,-5.073549500E0,8.710386658E-1,1.148431017E1
2.205673583E0,-1.041593994E1,-4.819677429E0,8.382568359E-1,1.150755273E1
2.215699583E0,-1.036519547E1,-4.545447693E0,4.493655396E-1,1.132697229E1
2.225725583E0,-1.022224274E1,-4.305346985E0,-9.879455566E-3,1.109190501E1
2.235751583E0,-9.988428955E0,-4.008963318E0,-2.240840149E-1,1.076525492E1
2.245777583E0,-9.631421356E0,-3.742966461E0,-2.221380615E-1,1.033554162E1
2.255803583E0,-9.188342743E0,-3.659290466E0,-2.007325745E-1,9.892236483E0
2.265829583E0,-8.807085571E0,-3.720213776E0,-5.957611084E-2,9.560768594E0
2.275855583E0,-8.496032410E0,-3.804039459E0,3.433859253E-1,9.315105840E0
2.285881583E0,-8.186775513E0,-3.909420319E0,7.524851990E-1,9.103466071E0
2.295907583E0,-7.894283752E0,-4.019740906E0,9.595046997E-1,8.910593818E0
2.305933583E0,-7.600594482E0,-4.134552155E0,1.013991394E0,8.711586340E0
2.315959583E0,-7.369475098E0,-4.222569122E0,8.780740356E-1,8.538750917E0
2.325985583E0,-7.295229492E0,-4.237238617E0,7.390132141E-1,8.468807766E0
2.336011583E0,-7.248676300E0,-4.144431610E0,6.830296326E-1,8.377717526E0
2.346037583E0,-7.051685944E0,-3.949836273E0,6.068380737E-1,8.105290475E0
2.356063583E0,-6.900949402E0,-3.769611053E0,2.995271301E-1,7.869103293E0
2.366089583E0,-6.762337646E0,-3.558100891E0,1.044827271E-1,7.642002947E0
2.376115583E0,-6.522835693E0,-3.326233063E0,2.348616028E-1,7.325733536E0
2.386141583E0,-6.237978058E0,-3.109184418E0,2.785707092E-1,6.975456948E0
2.396167583E0,-5.991590424E0,-3.005899200E0,2.857557678E-1,6.709414443E0
2.406193583E0,-5.885461121E0,-3.025658112E0,4.394860840E-1,6.632224938E0
2.416219583E0,-5.853427734E0,-3.035238190E0,5.538482666E-1,6.616799454E0
2.426245583E0,-5.784720612E0,-3.036884766E0,6.186634827E-1,6.562652371E0
2.436271583E0,-5.822591858E0,-3.052153015E0,6.908134460E-1,6.610252430E0
2.446297583E0,-6.046975250E0,-3.078049164E0,6.668632507E-1,6.817991121E0
2.456323583E0,-6.294710083E0,-3.238365784E0,5.095404053E-1,7.097183907E0
2.466350208E0,-6.499334564E0,-3.464545441E0,2.779719543E-1,7.370325182E0
2.476376208E0,-6.727759552E0,-3.692072296E0,2.392025757E-1,7.677979181E0
2.486402208E0,-6.906787262E0,-3.847598877E0,1.898052979E-1,7.908460878E0
2.496428208E0,-7.187603302E0,-4.120182037E0,2.176473999E-1,8.287636071E0
2.506454208E0,-7.536078644E0,-4.412075043E0,4.079017639E-1,8.742154846E0
2.516480208E0,-7.864944763E0,-4.580325165E0,5.508544922E-1,9.118123459E0
2.526506208E0,-8.199049988E0,-4.668042755E0,7.503895569E-1,9.464572275E0
2.536532208E0,-8.428971863E0,-4.705315247E0,9.472302246E-1,9.699732127E0
2.546558208E0,-8.636290741E0,-4.788542175E0,1.093925171E0,9.935407702E0
2.556583208E0,-8.740324402E0,-5.014572144E0,1.142574005E0,1.014123660E1
2.566609208E0,-8.840316467E0,-5.361700287E0,1.088686066E0,1.039635814E1
2.576635208E0,-9.027577057E0,-5.843548279E0,1.099463654E0,1.080985774E1
2.586661208E0,-9.334438934E0,-6.376290436E0,1.139131165E0,1.136162179E1
2.596687208E0,-9.514364777E0,-6.748266907E0,1.119222565E0,1.171814416E1
2.606713208E0,-9.553583221E0,-6.963519287E0,1.056652679E0,1.186920672E1
2.616739208E0,-9.400900726E0,-6.987619171E0,9.360035706E-1,1.175073865E1
2.626765208E0,-9.290280762E0,-6.821015625E0,7.758366394E-1,1.155151476E1
2.636791208E0,-9.343270569E0,-6.379433899E0,8.605604553E-1,1.134612031E1
2.646817208E0,-9.328301697E0,-5.636528778E0,1.046473846E0,1.094909936E1
2.656843208E0,-9.249266052E0,-4.851561127E0,1.097218323E0,1.050192630E1
2.666869208E0,-9.223818970E0,-4.230053558E0,9.496252441E-1,1.019185840E1
2.676895208E0,-9.253157959E0,-3.826043701E0,8.096662903E-1,1.004565091E1
2.686921208E0,-9.306147766E0,-3.530857544E0,7.213499451E-1,9.979563467E0
2.696947208E0,-9.264234924E0,-3.313060455E0,5.551954651E-1,9.854474127E0
2.706973208E0,-9.220675507E0,-3.296295319E0,3.656895447E-1,9.798987114E0
2.716999208E0,-9.239985352E0,-3.552113342E0,2.730322266E-1,9.902998793E0
2.727025208E0,-9.318721619E0,-3.809428253E0,2.329156494E-1,1.006998341E1
2.737051208E0,-9.492510223E0,-4.004023590E0,2.749781799E-1,1.030609374E1
2.747077208E0,-9.666149139E0,-4.152514801E0,2.294728088E-1,1.052285494E1
2.757103208E0,-9.816586304E0,-4.234095154E0,2.730322266E-1,1.069427300E1
2.767129208E0,-9.916428680E0,-4.271367645E0,2.384541321E-1,1.079986110E1
2.777155208E0,-1.006581802E1,-4.306993561E0,-8.532257080E-3,1.094855967E1
2.787181208E0,-1.017688705E1,-4.305796051E0,-4.159849548E-1,1.105811707E1
2.797207208E0,-1.013063324E1,-4.240531769E0,-8.379574585E-1,1.101426403E1
2.807233208E0,-1.001013382E1,-4.123924255E0,-1.349593506E0,1.091012983E1
2.817259208E0,-9.906998291E0,-3.972439270E0,-1.934577026E0,1.084764846E1
2.827285208E0,-9.712402954E0,-3.800147552E0,-2.440824280E0,1.071118648E1
2.837311208E0,-9.440119171E0,-3.696712646E0,-2.602338409E0,1.046679032E1
2.847337208E0,-9.079219666E0,-3.665876770E0,-2.431543579E0,1.008877031E1
2.857363208E0,-8.739725647E0,-3.605701904E0,-2.004331970E0,9.664431554E0
2.867389208E0,-8.461604004E0,-3.582949219E0,-1.453627167E0,9.303187592E0
2.877414208E0,-8.141419830E0,-3.581302643E0,-9.151968384E-1,8.941254427E0
2.887440208E0,-7.865693207E0,-3.612886963E0,-4.525090027E-1,8.667574414E0
2.897466208E0,-7.638615417E0,-3.622766418E0,-1.216969299E-1,8.455039454E0
2.907492208E0,-7.440277863E0,-3.638932800E0,1.092727661E-2,8.282492741E0
2.917518208E0,-7.335645447E0,-3.706592102E0,1.384620667E-1,8.220078520E0
2.927544208E0,-7.360942841E0,-3.766916656E0,2.784210205E-1,8.273491335E0
2.937570208E0,-7.410938873E0,-3.765120392E0,2.468367004E-1,8.316193535E0
2.947596208E0,-7.544012146E0,-3.835324402E0,1.106199646E-1,8.463691234E0
2.957622208E0,-7.732320557E0,-3.900588684E0,-7.499404907E-2,8.660773486E0
2.967648208E0,-7.981851654E0,-3.891307983E0,-2.375559998E-1,8.883055021E0
2.977674208E0,-8.148904266E0,-3.767814789E0,-3.457809448E-1,8.984466233E0
2.987700208E0,-8.266260223E0,-3.587739258E0,-5.291496277E-1,9.026789595E0
2.997726208E0,-8.528365173E0,-3.469335480E0,-6.500981140E-1,9.229947387E0
3.007752208E0,-8.880882111E0,-3.323688354E0,-5.680686951E-1,9.499456478E0
3.017778208E0,-9.155411224E0,-3.237317963E0,-5.219645691E-1,9.724928241E0
3.027804208E0,-9.464668121E0,-3.312461700E0,-4.782554626E-1,1.003897771E1
3.037830208E0,-9.606123962E0,-3.382815399E0,-3.823049927E-1,1.019152661E1
3.047856208E0,-9.504335632E0,-3.423530731E0,-1.715432739E-1,1.010358281E1
3.057882208E0,-9.405092010E0,-3.490441589E0,1.689985657E-1,1.003331943E1
3.067908208E0,-9.242979126E0,-3.560495911E0,3.712280273E-1,9.911992963E0
3.077934208E0,-9.054820404E0,-3.653302917E0,3.634442139E-1,9.770797636E0
3.087960208E0,-8.942254486E0,-3.789519653E0,4.251159668E-1,9.721373261E0
3.097986208E0,-8.854087830E0,-3.829336853E0,4.990621948E-1,9.659593941E0
3.108012208E0,-8.858728180E0,-3.910318451E0,4.215234375E-1,9.692540295E0
3.118038208E0,-9.100325775E0,-4.047882385E0,5.228627014E-1,9.973698733E0
3.128064208E0,-9.438023529E0,-4.158652039E0,7.762857056E-1,1.034278949E1
3.138090208E0,-9.752968597E0,-4.283941498E0,9.291178894E-1,1.069279249E1
3.148116208E0,-1.019380188E1,-4.533023529E0,1.011147308E0,1.120197831E1
3.158142208E0,-1.067999084E1,-4.843627625E0,1.069226532E0,1.177566042E1
3.168168208E0,-1.111064529E1,-5.135820007E0,1.099014587E0,1.228946374E1
3.178193208E0,-1.153201904E1,-5.379363556E0,1.008901978E0,1.276490888E1
3.188219208E0,-1.182406174E1,-5.539680176E0,9.312135315E-1,1.309059399E1
3.198245208E0,-1.196581696E1,-5.539979553E0,9.027726746E-1,1.321692655E1
3.208271208E0,-1.211715225E1,-5.430706787E0,7.885601807E-1,1.330187137E1
3.218297208E0,-1.237805969E1,-5.265600128E0,6.001020813E-1,1.346488132E1
3.228323208E0,-1.263282990E1,-5.173092499E0,4.755610657E-1,1.365926189E1
3.238349208E0,-1.257669662E1,-5.115911407E0,4.587959290E-1,1.358515150E1
3.248375208E0,-1.235470825E1,-5.055287476E0,5.881269836E-1,1.336191007E1
3.258401208E0,-1.217388428E1,-4.972210236E0,9.078620911E-1,1.318144706E1
3.268427208E0,-1.188453598E1,-4.785548401E0,1.131497040E0,1.286172440E1
3.278453208E0,-1.162737076E1,-4.551285553E0,1.127904510E0,1.253722934E1
3.288479208E0,-1.139819733E1,-4.386627960E0,1.082399139E0,1.226103564E1
3.298505208E0,-1.120285355E1,-4.262536011E0,9.988728333E-1,1.202792117E1
3.308531208E0,-1.092832443E1,-4.198768616E0,7.936495972E-1,1.173404502E1
3.318557208E0,-1.062969543E1,-4.235292664E0,6.586303711E-1,1.146132291E1
3.328583208E0,-1.030801437E1,-4.406686249E0,7.762857056E-1,1.123728898E1
3.338609208E0,-9.896220703E0,-4.571194153E0,8.617579651E-1,1.093497266E1
3.348635208E0,-9.589209137E0,-4.766837311E0,9.770182800E-1,1.075314998E1
3.358661208E0,-9.282796326E0,-4.969515839E0,1.215771790E0,1.059926867E1
3.368687208E0,-9.017847290E0,-5.083878021E0,1.459614716E0,1.045456171E1
3.378713208E0,-8.907077637E0,-5.190755768E0,1.661694489E0,1.044227973E1
3.388739208E0,-9.008566589E0,-5.358856201E0,1.838327179E0,1.064194806E1
3.398765208E0,-9.203012238E0,-5.466183014E0,1.986818390E0,1.088678273E1
3.408791208E0,-9.290131073E0,-5.406457214E0,1.985022125E0,1.093053648E1
3.418817208E0,-9.281299438E0,-5.239853668E0,1.842219086E0,1.081630052E1
3.428843208E0,-9.009015656E0,-4.994513855E0,1.728755035E0,1.044490908E1
3.438869208E0,-8.677155762E0,-4.741090851E0,1.556463318E0,1.000967295E1
3.448895208E0,-8.370144196E0,-4.479434967E0,1.243015137E0,9.574431477E0
3.458921208E0,-8.082891541E0,-4.261637878E0,1.212778015E0,9.217674521E0
3.468947375E0,-7.873477020E0,-4.084705811E0,1.344653778E0,8.971318506E0
3.478973375E0,-7.874075775E0,-3.998934174E0,1.528920593E0,8.962708409E0
3.488999375E0,-7.937543793E0,-4.011657715E0,1.685944061E0,9.052094037E0
3.499024375E0,-7.869734802E0,-4.044589233E0,1.745220795E0,9.018715183E0
3.509050375E0,-7.795189819E0,-4.071084137E0,1.731000366E0,8.962983467E0
3.519076375E0,-7.730224915E0,-4.113146667E0,1.827848969E0,8.945131893E0
3.529102375E0,-7.565567322E0,-4.130660248E0,1.857637024E0,8.817651518E0
3.539128375E0,-7.452851715E0,-4.149670715E0,1.854194183E0,8.729421619E0
3.549154375E0,-7.443121948E0,-4.185596008E0,1.815125427E0,8.730060630E0
3.559180375E0,-7.491022339E0,-4.208199005E0,1.673370209E0,8.753543420E0
3.569206375E0,-7.546107788E0,-4.200415192E0,1.462309113E0,8.759313813E0
3.579232375E0,-7.608977051E0,-4.208348694E0,1.351689148E0,8.799647382E0
3.589258375E0,-7.718848572E0,-4.181404724E0,1.258133698E0,8.868352110E0
3.599284375E0,-7.798183594E0,-4.117337952E0,1.307381287E0,8.914784630E0
3.609310375E0,-7.708070984E0,-4.042044525E0,1.350940704E0,8.807810342E0
3.619336375E0,-7.556585999E0,-3.969595184E0,1.356030121E0,8.642829142E0
3.629362375E0,-7.442373505E0,-3.915557556E0,1.364562378E0,8.519539004E0
3.639388375E0,-7.338788910E0,-3.866459656E0,1.255139923E0,8.389440337E0
3.649414375E0,-7.243736572E0,-3.851939850E0,1.149459686E0,8.284347754E0
3.659440375E0,-7.190447388E0,-3.857178955E0,1.128503265E0,8.237346827E0
3.669466375E0,-7.201374664E0,-3.876788177E0,1.064885559E0,8.247621771E0
3.679492375E0,-7.309150543E0,-3.937412109E0,1.072669373E0,8.371231413E0
3.689518375E0,-7.310048676E0,-4.043541412E0,9.339079285E-1,8.405904045E0
3.699544375E0,-7.284152527E0,-4.133803711E0,6.927593994E-1,8.403994689E0
3.709570375E0,-7.138505402E0,-4.051474915E0,7.638615417E-1,8.243554622E0
3.719596375E0,-6.981182556E0,-3.998784485E0,9.942324829E-1,8.106521169E0
3.729622375E0,-6.851851501E0,-3.947441254E0,9.904902649E-1,7.969393478E0
3.739648375E0,-6.931785278E0,-3.934418335E0,8.596623230E-1,8.016752091E0
3.749674375E0,-7.188501434E0,-4.007915497E0,7.637118530E-1,8.265663633E0
3.759700375E0,-7.473957825E0,-4.140240326E0,8.268804932E-1,8.584018108E0
3.769726375E0,-7.770042114E0,-4.286635895E0,8.229885864E-1,8.912132852E0
3.779752375E0,-8.423283691E0,-4.536915436E0,9.607022095E-1,9.615521751E0
3.789778375E0,-9.185648346E0,-4.980592804E0,1.206341400E0,1.051844569E1
3.799803375E0,-9.717492371E0,-5.662275238E0,1.143621826E0,1.130481710E1
3.809829375E0,-1.035771103E1,-6.503076782E0,9.470805359E-1,1.226658661E1
3.819855375E0,-1.106499023E1,-7.331304474E0,1.091530151E0,1.331816325E1
3.829881375E0,-1.149100433E1,-7.871980133E0,1.373992767E0,1.399639625E1
3.839907375E0,-1.172676407E1,-8.171207886E0,1.562600555E0,1.437801636E1
3.849933375E0,-1.160132492E1,-8.128696289E0,1.536854095E0,1.424880219E1
3.859959375E0,-1.129251709E1,-7.818690948E0,1.455124054E0,1.381196063E1
3.869985375E0,-1.082384171E1,-7.118596802E0,1.385518799E0,1.302880010E1
3.880011375E0,-1.016925293E1,-6.113886108E0,1.194965057E0,1.192565512E1
3.890037375E0,-9.643097076E0,-5.300627289E0,1.148112488E0,1.106364014E1
3.900063375E0,-9.270821228E0,-4.605023804E0,9.803114319E-1,1.039785463E1
3.910089375E0,-9.098679199E0,-4.228856049E0,5.206173706E-1,1.004690147E1
3.920115375E0,-8.969348145E0,-4.180805969E0,1.438508606E-1,9.896920620E0
3.930141375E0,-8.762927399E0,-4.343068542E0,-1.712438965E-1,9.781639200E0
3.940167375E0,-8.622070312E0,-4.534819794E0,-3.968247986E-1,9.749982408E0
3.950193375E0,-8.534053345E0,-4.705315247E0,-5.810916138E-1,9.762567568E0
3.960219375E0,-8.336015167E0,-4.841981049E0,-1.037941589E0,9.695939980E0
3.970245375E0,-8.110883331E0,-4.954996033E0,-1.699865112E0,9.655462469E0
3.980271375E0,-7.835456085E0,-5.005441132E0,-2.339784393E0,9.587669372E0
3.990297375E0,-7.647896118E0,-4.919968872E0,-2.760858765E0,9.503617725E0
4.000323375E0,-7.582482147E0,-4.762346649E0,-3.047213287E0,9.458302699E0
4.010349375E0,-7.535030823E0,-4.627028046E0,-3.165018311E0,9.391667527E0
4.020375375E0,-7.545808411E0,-4.529431000E0,-3.151246948E0,9.348011932E0
4.030401375E0,-7.530989227E0,-4.465064850E0,-2.907703400E0,9.225364053E0
4.040427375E0,-7.422913971E0,-4.412673798E0,-2.536774750E0,9.000364881E0
4.050453375E0,-7.263345795E0,-4.395609283E0,-2.223027191E0,8.776071046E0
4.060479375E0,-7.174879761E0,-4.424948273E0,-1.900148621E0,8.641159157E0
4.070505375E0,-7.077432404E0,-4.385580139E0,-1.298399963E0,8.426695975E0
4.080531375E0,-6.905290375E0,-4.269870758E0,-7.824229431E-1,8.156409572E0
4.090557375E0,-6.684948578E0,-4.225712585E0,-5.248086548E-1,7.925945273E0
4.100583375E0,-6.638844452E0,-4.208498383E0,-2.799179077E-1,7.865371468E0
4.110608375E0,-6.715485077E0,-4.166585541E0,1.242416382E-2,7.903058221E0
4.120634375E0,-6.779851227E0,-4.070934448E0,2.314187622E-1,7.911538699E0
4.130660375E0,-6.934030609E0,-4.018244019E0,3.107537842E-1,8.020201581E0
4.140686375E0,-7.237299957E0,-3.978426819E0,2.917433167E-1,8.263867423E0
4.150712375E0,-7.495662689E0,-3.919449463E0,3.129991150E-1,8.464337640E0
4.160738375E0,-7.668553162E0,-3.913012848E0,2.483335876E-1,8.612783912E0
4.170764375E0,-7.866291962E0,-3.980073395E0,1.255888367E-1,8.816762785E0
4.180790375E0,-8.227191467E0,-3.986210632E0,1.426533508E-1,9.143134289E0
4.190816375E0,-8.574020233E0,-3.876788177E0,2.192939758E-1,9.412300430E0
4.200842375E0,-8.854387207E0,-3.796704712E0,2.432441711E-1,9.637131690E0
4.210868375E0,-9.166488190E0,-3.716770935E0,1.435514832E-1,9.892396016E0
4.220894375E0,-9.473200378E0,-3.546574860E0,1.788780212E-1,1.011690249E1
4.230920375E0,-9.649833069E0,-3.332819366E0,1.399589539E-1,1.021012006E1
4.240946375E0,-9.686207428E0,-3.120860138E0,3.742218018E-3,1.017656113E1
4.250972375E0,-9.734706573E0,-2.966680756E0,9.924362183E-2,1.017720768E1
4.260998375E0,-9.726623383E0,-2.868484955E0,1.872605896E-1,1.014250831E1
4.271024375E0,-9.675280151E0,-2.859803009E0,1.543290710E-1,1.009025950E1
4.281050375E0,-9.673783264E0,-3.010539551E0,1.109193420E-1,1.013201530E1
4.291076375E0,-9.706565094E0,-3.213966522E0,2.725831604E-1,1.022845483E1
4.301102375E0,-9.823471985E0,-3.362008667E0,3.168910217E-1,1.038769099E1
4.311128375E0,-9.972412262E0,-3.617377625E0,2.356100464E-1,1.061084065E1
4.321154375E0,-1.005099884E1,-3.879931641E0,1.725910950E-1,1.077526032E1
4.331180375E0,-1.016985168E1,-4.027824097E0,1.679507446E-1,1.093971927E1
4.341206375E0,-1.029603928E1,-4.061653748E0,3.659889221E-1,1.107426764E1
4.351232375E0,-1.039453445E1,-4.056564331E0,4.052073669E-1,1.116540432E1
4.361258375E0,-1.060709244E1,-4.065395966E0,3.447331238E-1,1.136471272E1
4.371284375E0,-1.083387085E1,-4.052223358E0,3.805087280E-1,1.157316113E1
4.381310375E0,-1.092832443E1,-3.993246002E0,4.061054993E-1,1.164213083E1
4.391336375E0,-1.092697723E1,-3.973636780E0,3.896397400E-1,1.163359101E1
4.401362375E0,-1.085991669E1,-4.089645538E0,3.751199341E-1,1.161049982E1
4.411388375E0,-1.087308929E1,-4.396507416E0,3.767665100E-1,1.173436412E1
4.421414375E0,-1.106139771E1,-4.823569336E0,3.146456909E-1,1.207146811E1
4.431439375E0,-1.127081223E1,-5.268893280E0,3.344046021E-1,1.244605444E1
4.441465375E0,-1.148980682E1,-5.675747223E0,4.258644104E-1,1.282229027E1
4.451491375E0,-1.176972473E1,-5.932762756E0,7.075785828E-1,1.319942278E1
4.461517375E0,-1.198198334E1,-6.035748596E0,9.322613525E-1,1.344869128E1
4.471542958E0,-1.242461288E1,-6.047274628E0,1.013841705E0,1.385526654E1
4.481568958E0,-1.284254379E1,-5.881269836E0,7.750881958E-1,1.414641395E1
4.491594958E0,-1.314057404E1,-5.611830139E0,2.965333557E-1,1.429178979E1
4.501620958E0,-1.325074493E1,-5.333409119E0,-1.085243225E-1,1.428423157E1
4.511646958E0,-1.290092239E1,-4.957091675E0,-3.095562744E-1,1.382397850E1
4.521672958E0,-1.232282455E1,-4.573140106E0,-2.255809021E-1,1.314596905E1
4.531698958E0,-1.180789536E1,-4.297563171E0,-8.158035278E-2,1.256591013E1
4.541724958E0,-1.136601425E1,-4.066743164E0,1.739382935E-1,1.207290083E1
4.551750958E0,-1.098056580E1,-3.894301758E0,6.158193970E-1,1.166694668E1
4.561776958E0,-1.050246002E1,-3.777843933E0,1.146914978E0,1.122003499E1
4.571802958E0,-1.007569748E1,-3.770209808E0,1.603914642E0,1.087688852E1
4.581828958E0,-9.835896149E0,-3.864364014E0,2.102527771E0,1.077491463E1
4.591854958E0,-9.658065948E0,-4.023932190E0,2.387684784E0,1.073178954E1
4.601880958E0,-9.553433533E0,-4.223766632E0,2.503094788E0,1.074121875E1
4.611906958E0,-9.419611816E0,-4.369713135E0,2.542163544E0,1.069046655E1
4.621932958E0,-9.209299164E0,-4.537963257E0,2.491419067E0,1.056463301E1
4.631958958E0,-9.012907562E0,-4.728217621E0,2.377056885E0,1.045174359E1
4.641984958E0,-8.914861450E0,-4.953499146E0,2.360740814E0,1.046828571E1
4.652010958E0,-8.888665924E0,-5.161865845E0,2.453248444E0,1.056748167E1
4.662036958E0,-8.873846741E0,-5.319787445E0,2.516716461E0,1.064796488E1
4.672062958E0,-8.839418335E0,-5.463189240E0,2.686014404E0,1.073295982E1
4.682088958E0,-8.763077087E0,-5.540428619E0,2.870730286E0,1.075773962E1
4.692114958E0,-8.682544556E0,-5.521567841E0,2.977158966E0,1.071157163E1
4.702140958E0,-8.548124084E0,-5.416336670E0,2.927911377E0,1.053469474E1
4.712166958E0,-8.397686920E0,-5.281766510E0,2.889591064E0,1.033285728E1
4.722192958E0,-8.185128937E0,-5.109025726E0,2.780617676E0,1.004142989E1
4.732218958E0,-8.045020294E0,-4.981490936E0,2.542612610E0,9.798085648E0
4.742243958E0,-8.029003601E0,-4.903503113E0,2.399210815E0,9.709039816E0
4.752269958E0,-7.948471069E0,-4.825515289E0,2.407892761E0,9.605297377E0
4.762295958E0,-7.812254333E0,-4.770579529E0,2.357896729E0,9.452482414E0
4.772321958E0,-7.748486938E0,-4.767585754E0,2.279310150E0,9.378922034E0
4.782347958E0,-7.704328766E0,-4.739743652E0,2.401456146E0,9.358891133E0
4.792373958E0,-7.531737671E0,-4.626279602E0,2.449955292E0,9.172339736E0
4.802399958E0,-7.335346069E0,-4.545597382E0,2.398761749E0,8.956774835E0
4.812425958E0,-7.152875519E0,-4.495301971E0,2.277513885E0,8.749767854E0
4.822451958E0,-7.001540222E0,-4.436174927E0,2.186652832E0,8.572202988E0
4.832477958E0,-6.818470917E0,-4.321363678E0,2.166744232E0,8.358260001E0
4.842503958E0,-6.586603088E0,-4.117337952E0,2.015708313E0,8.024892028E0
4.852529958E0,-6.429878998E0,-3.988156586E0,1.782193909E0,7.773348828E0
4.862555958E0,-6.269412689E0,-3.869902496E0,1.460213470E0,7.510918997E0
4.872581958E0,-6.057004395E0,-3.691772919E0,1.043031006E0,7.169686409E0
4.882607958E0,-5.818999329E0,-3.458707581E0,4.558021545E-1,6.784627250E0
4.892633958E0,-5.623954926E0,-3.350931702E0,4.610412598E-2,6.546734901E0
4.902659958E0,-5.482050018E0,-3.389401703E0,-1.032852173E-1,6.446051826E0
4.912685958E0,-5.546715546E0,-3.525468750E0,-1.966909790E-1,6.575231600E0
4.922711958E0,-5.692961426E0,-3.734733582E0,-7.424560547E-2,6.809079022E0
4.932737958E0,-5.911057892E0,-3.941304016E0,2.243833923E-1,7.108082066E0
4.942763958E0,-6.148613892E0,-4.162394257E0,5.414241028E-1,7.444737658E0
4.952789958E0,-6.382427673E0,-4.331841888E0,8.985813904E-1,7.765802320E0
4.962815958E0,-6.684200134E0,-4.490661621E0,1.143172760E0,8.133352150E0
4.972841958E0,-6.921606445E0,-4.510570221E0,1.055604858E0,8.328756277E0
4.982867958E0,-7.272027740E0,-4.511168976E0,8.523275757E-1,8.599970656E0
4.992893958E0,-7.710466003E0,-4.535418549E0,7.056326294E-1,8.973250515E0
5.002919958E0,-8.126450958E0,-4.568948822E0,3.480262756E-1,9.329288333E0
5.012945958E0,-8.557255096E0,-4.748126221E0,2.993774414E-4,9.786282107E0
5.022971958E0,-9.052275696E0,-5.115612030E0,-1.692979431E-1,1.039912706E1
5.032997958E0,-9.513616333E0,-5.534740448E0,-8.277786255E-2,1.100677517E1
5.043023958E0,-9.724976807E0,-5.921236725E0,5.748046875E-2,1.138593528E1
5.053048958E0,-9.857451324E0,-6.357579346E0,2.013313293E-1,1.173152573E1
5.063074958E0,-1.004486160E1,-6.806346130E0,4.896318054E-1,1.214353044E1
5.073100958E0,-1.015054184E1,-7.103478241E0,8.568182373E-1,1.241881799E1
5.083126958E0,-1.004246658E1,-7.128176880E0,1.173858948E0,1.237093309E1
5.093152958E0,-9.883497162E0,-6.988217926E0,1.427431641E0,1.218836605E1
5.103178958E0,-9.681267700E0,-6.691235504E0,1.579964447E0,1.187416795E1
5.113204958E0,-9.650581512E0,-6.290967865E0,1.687291260E0,1.164289277E1
5.123230958E0,-9.686207428E0,-5.780828705E0,1.746118927E0,1.141444375E1
5.133256958E0,-9.585466919E0,-5.201233978E0,1.562600555E0,1.101706546E1
5.143282958E0,-9.508377228E0,-4.709207153E0,1.454525299E0,1.070987924E1
5.153308958E0,-9.228758698E0,-4.281995544E0,1.256636810E0,1.025107843E1
5.163334958E0,-9.035660248E0,-3.982019348E0,1.016985168E0,9.926423980E0
5.173360958E0,-9.075926514E0,-3.812871094E0,8.973838806E-1,9.885126498E0
5.183386958E0,-9.274264069E0,-3.781286774E0,9.753717041E-1,1.006287502E1
5.193412958E0,-9.498048706E0,-3.783083038E0,1.089883575E0,1.028165807E1
5.203438958E0,-9.889484711E0,-3.833378448E0,1.269659729E0,1.068216897E1
5.213464958E0,-1.027089157E1,-3.852388916E0,1.363065491E0,1.105396135E1
5.223490958E0,-1.050964508E1,-3.883374481E0,1.403631134E0,1.129174112E1
5.233516958E0,-1.065529221E1,-4.009861450E0,1.259480896E0,1.145428012E1
5.243542958E0,-1.062475571E1,-4.122577057E0,9.036708069E-1,1.143230932E1
5.253568958E0,-1.044842239E1,-4.153712311E0,5.195695496E-1,1.125579002E1
5.263594958E0,-1.020802231E1,-4.177961884E0,1.978884888E-1,1.103169274E1
5.273620958E0,-1.003123993E1,-4.207001495E0,-7.170089722E-2,1.087794912E1
5.283646958E0,-9.940528564E0,-4.162843323E0,-1.422042847E-1,1.077792163E1
5.293672958E0,-9.696386261E0,-4.006867676E0,-1.930984497E-2,1.049167613E1
5.303698958E0,-9.406588898E0,-3.850592651E0,5.523513794E-2,1.016435091E1
5.313724958E0,-9.146729279E0,-3.764671326E0,1.004411316E-1,9.891688183E0
5.323750958E0,-8.941805420E0,-3.706292725E0,2.520758057E-1,9.682769859E0
5.333776958E0,-8.597820740E0,-3.639381866E0,4.005670166E-1,9.344949212E0
5.343802958E0,-8.246351624E0,-3.632047119E0,4.867877197E-1,9.023915096E0
5.353828958E0,-7.963140564E0,-3.711531830E0,5.610333252E-1,8.803512626E0
5.363854958E0,-7.686515808E0,-3.782933350E0,4.816983032E-1,8.580509498E0
5.373879958E0,-7.472161560E0,-3.860172729E0,4.062551880E-1,8.420164794E0
5.383905958E0,-7.291337585E0,-3.958218842E0,4.534071350E-1,8.308831339E0
5.393931958E0,-7.063211975E0,-4.024980011E0,4.480183411E-1,8.141876192E0
5.403957958E0,-6.942413177E0,-4.120182037E0,3.061134338E-1,8.078781231E0
5.413983958E0,-6.839127960E0,-4.193978577E0,1.526824951E-1,8.024116120E0
5.424009958E0,-6.838678894E0,-4.223616943E0,2.140548706E-1,8.040664686E0
5.434035958E0,-6.791676636E0,-4.140839081E0,3.628454590E-1,7.962730477E0
5.444061958E0,-6.728507996E0,-4.043242035E0,5.394781494E-1,7.868396449E0
5.454087958E0,-6.711293793E0,-3.976031799E0,6.330335999E-1,7.826303392E0
5.464113958E0,-6.858138428E0,-3.980223083E0,7.303312683E-1,7.963015902E0
5.474139958E0,-7.010222168E0,-3.964056702E0,7.649093628E-1,8.089625870E0
5.484165958E0,-7.211553497E0,-3.916006622E0,6.212081909E-1,8.229672614E0
5.494191958E0,-7.538623352E0,-3.901337128E0,6.117778015E-1,8.510319941E0
5.504217958E0,-7.885452118E0,-3.847449188E0,5.764512634E-1,8.792924225E0
5.514243958E0,-8.241711273E0,-3.756588135E0,4.575984192E-1,9.069021746E0
5.524269958E0,-8.584348755E0,-3.675756226E0,3.513194275E-1,9.344819566E0
5.534295958E0,-8.942254486E0,-3.595074005E0,2.510279846E-1,9.641135174E0
5.544321958E0,-9.263785858E0,-3.599265289E0,3.787124634E-2,9.938504580E0
5.554347958E0,-9.656718750E0,-3.703448639E0,-1.002914429E-2,1.034252626E1
5.564373958E0,-1.005054977E1,-3.846251678E0,2.564167786E-1,1.076442996E1
5.574399958E0,-1.037193146E1,-4.041745148E0,4.644841003E-1,1.114129308E1
5.584425958E0,-1.063882645E1,-4.346960449E0,6.845265198E-1,1.151300438E1
5.594451958E0,-1.093401260E1,-4.689897308E0,9.680369568E-1,1.193670239E1
5.604477958E0,-1.122575592E1,-4.914879456E0,1.226100311E0,1.231571996E1
5.614503958E0,-1.140613083E1,-5.015470276E0,1.443448334E0,1.254345669E1
5.624529958E0,-1.155342453E1,-5.022355957E0,1.552721100E0,1.269317220E1
5.634555958E0,-1.160731247E1,-4.947661285E0,1.640887756E0,1.272405468E1
5.644581958E0,-1.156884247E1,-4.818928986E0,1.576970673E0,1.263119270E1
5.654607958E0,-1.155192764E1,-4.775818634E0,1.423090668E0,1.258096431E1
5.664633958E0,-1.165191971E1,-4.910239105E0,1.307680664E0,1.271171545E1
5.674659958E0,-1.171868088E1,-5.148693237E0,1.287772064E0,1.286448135E1
5.684685958E0,-1.167452271E1,-5.463937683E0,1.197210388E0,1.294536242E1
5.694711958E0,-1.164443527E1,-5.856271820E0,1.148112488E0,1.308460755E1
5.704736958E0,-1.172017776E1,-6.203399963E0,1.140328674E0,1.330958630E1
5.714762958E0,-1.191118057E1,-6.455176392E0,1.166973267E0,1.359806425E1
5.724788958E0,-1.204679855E1,-6.631210327E0,1.169517975E0,1.380094483E1
5.734814958E0,-1.220771393E1,-6.692732391E0,1.065634003E0,1.396268320E1
5.744840958E0,-1.247505798E1,-6.524182892E0,9.448352051E-1,1.410973946E1
5.754866958E0,-1.252026398E1,-6.222111053E0,7.042854309E-1,1.399884617E1
5.764892958E0,-1.224274109E1,-5.774092712E0,2.576142883E-1,1.353850882E1
5.774918958E0,-1.176762909E1,-5.157075806E0,4.805007935E-2,1.284814516E1
5.784944958E0,-1.123174347E1,-4.550237732E0,-5.119354248E-2,1.211855377E1
5.794970958E0,-1.081800385E1,-4.174968109E0,-1.182540894E-1,1.159627311E1
5.804996958E0,-1.058508820E1,-4.062551880E0,1.062789917E-1,1.133841766E1
5.815022958E0,-1.038435562E1,-4.104015656E0,4.860392761E-1,1.117649410E1
5.825048958E0,-1.023736130E1,-4.319717102E0,9.915380859E-1,1.115556677E1
5.835074958E0,-1.002869522E1,-4.686304779E0,1.421593781E0,1.116051563E1
5.845100958E0,-9.839189301E0,-5.076692963E0,1.769021301E0,1.121213155E1
5.855126958E0,-9.697733459E0,-5.458399200E0,2.197430420E0,1.134322955E1
5.865152958E0,-9.492510223E0,-5.739514618E0,2.517614594E0,1.137489172E1
5.875178958E0,-9.327253876E0,-5.964496765E0,2.675087128E0,1.138986293E1
5.885204958E0,-9.128616943E0,-6.096971283E0,2.786006470E0,1.132548181E1
5.895230958E0,-8.882378998E0,-6.122268677E0,2.938239899E0,1.118088029E1
5.905256958E0,-8.614735565E0,-6.041287079E0,2.970872040E0,1.093329315E1
5.915282958E0,-8.512198792E0,-5.977220306E0,3.034938812E0,1.083492245E1
5.925308958E0,-8.462202759E0,-5.889652405E0,3.284918976E0,1.082070116E1
5.935334958E0,-8.261170807E0,-5.672005005E0,3.442990265E0,1.059588438E1
5.945360958E0,-8.191116486E0,-5.464686127E0,3.649860077E0,1.050136478E1
5.955386958E0,-8.327931976E0,-5.261109467E0,3.864962769E0,1.058166627E1
5.965412958E0,-8.561895447E0,-5.036875763E0,3.880829773E0,1.066475554E1
5.975438958E0,-8.610843658E0,-4.812642059E0,3.690126343E0,1.053210257E1
5.985464958E0,-8.581354980E0,-4.627327423E0,3.491938477E0,1.035593775E1
5.995490958E0,-8.493637390E0,-4.422553253E0,3.275937653E0,1.012090020E1
6.005516958E0,-8.130941620E0,-4.216731262E0,2.954855347E0,9.624146938E0
6.015542958E0,-7.708669739E0,-4.062402191E0,2.647694092E0,9.106974509E0
6.025568958E0,-7.234306183E0,-3.914809113E0,2.303410034E0,8.542049761E0
6.035593958E0,-6.755451965E0,-3.807033234E0,2.008672943E0,8.010268428E0
6.045619958E0,-6.325096893E0,-3.723357239E0,1.810784454E0,7.559707678E0
6.055645958E0,-5.873036957E0,-3.558549957E0,1.619182892E0,7.055323815E0
6.065671958E0,-5.493426361E0,-3.571123810E0,1.519789581E0,6.726099822E0
6.075697958E0,-5.393284607E0,-3.646117859E0,1.328487396E0,6.644288755E0
6.085723958E0,-5.458848267E0,-3.642525330E0,1.268911285E0,6.684096874E0
6.095749958E0,-5.449417877E0,-3.571722565E0,1.390458527E0,6.662336842E0
6.105775958E0,-5.467380524E0,-3.477568359E0,1.434017944E0,6.636425163E0
6.115801958E0,-5.523962860E0,-3.241209869E0,1.286125488E0,6.532512983E0
6.125827958E0,-5.538931732E0,-3.119063873E0,1.083147583E0,6.448374436E0
6.135853958E0,-5.673202515E0,-3.135978699E0,8.770262146E-1,6.541312112E0
6.145879958E0,-5.737568665E0,-3.082539825E0,6.674620056E-1,6.547308721E0
6.155905958E0,-5.832471313E0,-3.091670837E0,5.254074097E-1,6.622099602E0
6.165931958E0,-6.017636261E0,-3.294948120E0,4.616400146E-1,6.876171957E0
6.175957958E0,-6.290818176E0,-3.686982880E0,3.867956543E-1,7.301907077E0
6.185983958E0,-6.615343323E0,-4.188440094E0,2.038760376E-1,7.832455754E0
6.196009958E0,-6.846163330E0,-4.745431824E0,-1.107696533E-2,8.330017901E0
6.206035958E0,-7.216044159E0,-5.300028534E0,-1.014889526E-1,8.953876019E0
6.216061958E0,-7.873327332E0,-6.133794708E0,-1.492396545E-1,9.981732979E0
6.226087958E0,-7.577692108E0,-6.584507446E0,-6.057902527E-1,1.005704419E1
6.236113958E0,-6.787485352E0,-6.441405029E0,-1.474583588E0,9.472911533E0
6.246139958E0,-6.419251099E0,-6.369105377E0,-1.990710297E0,9.259331264E0
6.256165958E0,-6.394851837E0,-6.327940979E0,-2.273172913E0,9.279239308E0
6.266191958E0,-6.644233246E0,-6.280789032E0,-2.421963501E0,9.458332490E0
6.276217958E0,-6.954687653E0,-6.356830902E0,-2.277962952E0,9.693611023E0
6.286243958E0,-7.404053192E0,-6.755901031E0,-2.009122009E0,1.022246417E1
6.296269958E0,-8.050109711E0,-7.531887360E0,-1.496737518E0,1.112536816E1
6.306295958E0,-8.929231567E0,-8.533753967E0,-5.020559692E-1,1.236156112E1
6.316321958E0,-9.734556885E0,-9.437574463E0,5.870791626E-1,1.357107481E1
6.326347958E0,-1.012689102E1,-1.001447479E1,1.523382111E0,1.432355822E1
6.336373958E0,-1.027942383E1,-1.006012985E1,2.489173737E0,1.459687476E1
6.346399958E0,-1.027927414E1,-9.591753845E0,3.350332947E0,1.445302562E1
6.356425958E0,-1.021341110E1,-8.734785919E0,3.919449463E0,1.399901195E1
6.366450958E0,-1.028286667E1,-7.680677948E0,4.105961609E0,1.347549930E1
6.376476958E0,-1.042462189E1,-6.725663910E0,3.929777985E0,1.301347192E1
6.386502958E0,-1.049422714E1,-5.907465363E0,3.737427979E0,1.260933457E1
6.396528958E0,-1.050231033E1,-5.259612579E0,3.637435913E0,1.229605574E1
6.406554958E0,-1.053599030E1,-4.856051788E0,3.476520538E0,1.211092587E1
6.416580958E0,-1.056473053E1,-4.685256958E0,3.265309753E0,1.200947175E1
6.426606958E0,-1.055305481E1,-4.707560577E0,2.976560211E0,1.193264443E1
6.436632958E0,-1.041429337E1,-4.718487854E0,2.495909729E0,1.170261506E1
6.446658958E0,-1.022344025E1,-4.709805908E0,1.942660217E0,1.142256236E1
6.456684958E0,-9.993817749E0,-4.708758087E0,1.365909576E0,1.113168922E1
6.466710750E0,-9.769284668E0,-4.618795166E0,9.051676941E-1,1.084396239E1
6.476736750E0,-9.639953613E0,-4.450245667E0,4.517605591E-1,1.062720470E1
6.486762750E0,-9.622140656E0,-4.219275970E0,-1.773811340E-1,1.050806093E1
6.496788750E0,-9.550888824E0,-4.036206665E0,-5.809419250E-1,1.038498604E1
6.506814750E0,-9.395062866E0,-3.845203857E0,-6.313870239E-1,1.017110852E1
6.516840750E0,-9.175619202E0,-3.598516846E0,-5.676196289E-1,9.872360572E0
6.526866750E0,-8.975036316E0,-3.428919525E0,-4.827461243E-1,9.619865373E0
6.536892750E0,-8.757239227E0,-3.423530731E0,-3.445834351E-1,9.408960585E0
6.546918750E0,-8.623417511E0,-3.523073730E0,-1.317260742E-1,9.316261581E0
6.556944750E0,-8.565038910E0,-3.595373383E0,8.666976929E-2,9.289462468E0
6.566970750E0,-8.471333771E0,-3.618425446E0,3.698808289E-1,9.219181655E0
6.576996750E0,-8.386609955E0,-3.640878754E0,7.692503357E-1,9.175127831E0
6.587022750E0,-8.324339447E0,-3.764671326E0,9.256750488E-1,9.182823733E0
6.597048750E0,-8.358618164E0,-3.974983978E0,8.497828674E-1,9.294575093E0
6.607074750E0,-8.494385834E0,-4.165687408E0,8.165519714E-1,9.496014922E0
6.617100750E0,-8.564589844E0,-4.257147217E0,7.750881958E-1,9.595637724E0
6.627126750E0,-8.615184631E0,-4.354444885E0,6.360273743E-1,9.674044000E0
6.637152750E0,-8.682694244E0,-4.381688232E0,3.761677551E-1,9.732927272E0
6.647178750E0,-8.646918640E0,-4.312382355E0,4.056564331E-2,9.662685399E0
6.657204750E0,-8.546178131E0,-4.176464996E0,-6.721023560E-2,9.512336082E0
6.667230750E0,-8.523724823E0,-4.025878143E0,-3.906875610E-2,9.426722975E0
6.677256750E0,-8.575666809E0,-3.920796661E0,-1.243913269E-1,9.430280000E0
6.687282750E0,-8.608298950E0,-3.889062653E0,-2.984793091E-1,9.450751771E0
6.697307750E0,-8.596323853E0,-3.876488800E0,-1.475930786E-1,9.431104544E0
6.707333750E0,-8.431067505E0,-3.780089264E0,1.315763855E-1,9.240632363E0
6.717359750E0,-8.311615906E0,-3.733536072E0,3.695814514E-1,9.119146945E0
6.727385750E0,-8.237519989E0,-3.732937317E0,4.849914551E-1,9.056863325E0
6.737411750E0,-8.191266174E0,-3.665128326E0,5.194198608E-1,8.988871129E0
6.747437750E0,-8.148455200E0,-3.523522797E0,6.021977234E-1,8.898043445E0
6.757463750E0,-8.125253448E0,-3.427123260E0,6.816824341E-1,8.844750329E0
6.767489750E0,-8.231382751E0,-3.384761353E0,6.394702148E-1,8.923070860E0
6.777515750E0,-8.405620422E0,-3.411256256E0,6.237528992E-1,9.092864874E0
6.787541750E0,-8.579558716E0,-3.505410461E0,6.020480347E-1,9.287582683E0
6.797567750E0,-8.714877319E0,-3.733386383E0,6.206094360E-1,9.501179750E0
6.807593750E0,-8.835825806E0,-3.948638763E0,6.936575317E-1,9.702820545E0
6.817619750E0,-8.998088379E0,-4.185745697E0,7.131170654E-1,9.949602880E0
6.827645750E0,-9.244476013E0,-4.413571930E0,8.256829834E-1,1.027724216E1
6.837671750E0,-9.402996368E0,-4.531077576E0,8.421487427E-1,1.047168655E1
6.847697750E0,-9.628726959E0,-4.577930145E0,8.156538391E-1,1.069276010E1
6.857723750E0,-9.924511871E0,-4.586612091E0,6.869215393E-1,1.095467058E1
6.867749750E0,-1.015892441E1,-4.570894775E0,5.602848816E-1,1.115395640E1
6.877775750E0,-1.034558624E1,-4.624932404E0,4.105961609E-1,1.133974178E1
6.887801750E0,-1.049737061E1,-4.800517273E0,3.884422302E-1,1.154948670E1
6.897827750E0,-1.071441925E1,-5.045108643E0,4.393363953E-1,1.185094585E1
6.907853750E0,-1.089105194E1,-5.397775269E0,6.424639893E-1,1.217225329E1
6.917879750E0,-1.104777603E1,-5.905669098E0,7.619155884E-1,1.255033060E1
6.927905750E0,-1.126781845E1,-6.401587830E0,7.894583130E-1,1.298334717E1
6.937931750E0,-1.154249725E1,-6.786587219E0,8.897497559E-1,1.341933916E1
6.947957750E0,-1.180100967E1,-7.010521545E0,1.064436493E0,1.376750764E1
6.957983750E0,-1.189261917E1,-7.064559174E0,1.098864899E0,1.387623476E1
6.968009750E0,-1.183394119E1,-6.876400452E0,1.163680115E0,1.373612750E1
6.978035750E0,-1.162018570E1,-6.469097443E0,1.230890350E0,1.335638531E1
6.988061750E0,-1.135538635E1,-5.976322174E0,9.759704590E-1,1.286910037E1
6.998087750E0,-1.138233032E1,-5.635930023E0,5.855822754E-1,1.271471814E1
7.008112750E0,-1.154339539E1,-5.348677368E0,6.212081909E-1,1.273751256E1
7.018138750E0,-1.156225616E1,-5.083428955E0,1.144370270E0,1.268213708E1
7.028164750E0,-1.124461670E1,-4.889432373E0,1.948947144E0,1.241556880E1
7.038190750E0,-1.126871658E1,-4.917124786E0,2.768941956E0,1.260274292E1
7.048216750E0,-1.155821457E1,-4.908293152E0,3.777544556E0,1.311310446E1
7.058242750E0,-1.147304169E1,-5.088668060E0,4.629423065E0,1.337747308E1
7.068268750E0,-1.087757996E1,-5.352718964E0,4.878954163E0,1.306818808E1
7.078294750E0,-9.847422180E0,-5.741310883E0,4.552033997E0,1.227417564E1
7.088320750E0,-8.527616730E0,-6.271358643E0,3.662433929E0,1.120105391E1
7.098346750E0,-7.437882843E0,-6.724017334E0,2.797682190E0,1.040968472E1
7.108372750E0,-6.765032043E0,-6.725364532E0,2.104174347E0,9.768507375E0
7.118398750E0,-6.519692230E0,-6.632407837E0,1.811532898E0,9.475065801E0
7.128424750E0,-6.681505737E0,-6.591991882E0,1.864522705E0,9.569395008E0
7.138450750E0,-6.984026642E0,-6.446644135E0,1.837429047E0,9.680495557E0
7.148476750E0,-6.998396759E0,-6.171965332E0,1.550775146E0,9.459155185E0
7.158502750E0,-6.751859436E0,-6.080505524E0,1.244212646E0,9.171053286E0
7.168528750E0,-6.384673004E0,-5.915548553E0,7.831713867E-1,8.739057242E0
7.178554750E0,-6.164031830E0,-5.504653015E0,3.826043701E-1,8.273021172E0
7.188580750E0,-6.266867981E0,-5.100942535E0,1.466949463E-1,8.081755283E0
7.198606750E0,-6.544989624E0,-4.831203461E0,1.712438965E-1,8.136752456E0
7.208632750E0,-6.880741425E0,-4.675826569E0,4.667294312E-1,8.332214172E0
7.218658750E0,-7.183561707E0,-4.522096252E0,7.890092468E-1,8.524989672E0
7.228684750E0,-7.412136383E0,-4.435127106E0,1.062640228E0,8.702834162E0
7.238710750E0,-7.450007629E0,-4.388573914E0,1.208886108E0,8.730612825E0
7.248736750E0,-7.379803619E0,-4.336931305E0,1.256337433E0,8.651523470E0
7.258762750E0,-7.136709137E0,-4.251159668E0,1.278790741E0,8.404777307E0
7.268788750E0,-6.804849243E0,-4.265380096E0,1.249900818E0,8.127834438E0
7.278814750E0,-6.516399078E0,-4.339925079E0,1.261726227E0,7.930344237E0
7.288840750E0,-6.192622375E0,-4.365222473E0,1.243913269E0,7.677959322E0
7.298866750E0,-5.963598633E0,-4.362677765E0,1.109193420E0,7.471798711E0
7.308892750E0,-5.781577148E0,-4.370760956E0,9.241781616E-1,7.306455429E0
7.318918750E0,-5.734125824E0,-4.353397064E0,8.089178467E-1,7.244764527E0
7.328943750E0,-6.014941864E0,-4.267475739E0,9.485774231E-1,7.435769895E0
7.338969750E0,-6.560706940E0,-4.190236359E0,1.043330383E0,7.854266011E0
7.348995750E0,-7.019951935E0,-4.133953400E0,9.035211182E-1,8.196685079E0
7.359021750E0,-7.272626495E0,-4.091441803E0,7.222480774E-1,8.375716952E0
7.369047750E0,-7.368427277E0,-4.079466705E0,6.697073364E-1,8.448921650E0
7.379073750E0,-7.390281830E0,-4.114344177E0,5.358856201E-1,8.475332851E0
7.389099750E0,-7.344327393E0,-4.200864258E0,4.822970581E-1,8.474610069E0
7.399125750E0,-7.389832764E0,-4.368216248E0,6.840774536E-1,8.611556388E0
7.409151750E0,-7.492070160E0,-4.555177460E0,8.843609619E-1,8.812652908E0
7.419177750E0,-7.624694366E0,-4.790488129E0,9.910890198E-1,9.059083736E0
7.429203750E0,-7.859555969E0,-5.081183624E0,1.173709259E0,9.432318934E0
7.439229750E0,-8.205037537E0,-5.370831299E0,1.351838837E0,9.899289775E0
7.449255750E0,-8.505163422E0,-5.654940491E0,1.456920319E0,1.031691686E1
7.459281750E0,-8.843160553E0,-5.905369720E0,1.653311920E0,1.076142743E1
7.469308208E0,-8.962911530E0,-6.070027313E0,1.838476868E0,1.097993679E1
7.479334208E0,-9.106912079E0,-6.223607941E0,1.882485352E0,1.118985677E1
7.489360208E0,-9.312883759E0,-6.245462494E0,1.971550140E0,1.138519282E1
7.499386208E0,-9.627529449E0,-6.461912384E0,2.143093414E0,1.179145811E1
7.509412208E0,-9.942175140E0,-6.773713989E0,2.144590302E0,1.222003745E1
7.519438208E0,-1.018077896E1,-7.219936066E0,2.098037109E0,1.265612487E1
7.529464208E0,-1.031355286E1,-7.632478180E0,2.284399567E0,1.303236652E1
7.539490208E0,-1.030262558E1,-7.893834686E0,2.392923889E0,1.319783333E1
7.549516208E0,-1.043150757E1,-8.155789948E0,2.489024048E0,1.347325130E1
7.559542208E0,-1.056023987E1,-8.344098358E0,2.640209656E0,1.371544205E1
7.569568208E0,-1.045186523E1,-8.198151855E0,2.615511017E0,1.353854049E1
7.579594208E0,-9.992171173E0,-7.601642303E0,2.428849182E0,1.278779726E1
7.589620208E0,-9.350904694E0,-6.771768036E0,2.147584076E0,1.174343980E1
7.599646208E0,-8.852590942E0,-5.989195404E0,1.992207184E0,1.087233726E1
7.609672208E0,-8.494236145E0,-5.282814331E0,1.800455933E0,1.016375012E1
7.619698208E0,-8.209228821E0,-4.798421631E0,1.683549042E0,9.656636338E0
7.629723208E0,-8.136480103E0,-4.380341034E0,1.815424805E0,9.417295963E0
7.639749208E0,-7.966583405E0,-4.132755890E0,1.931134186E0,9.180163486E0
7.649775208E0,-7.874524841E0,-4.224664764E0,2.003733215E0,9.158104643E0
7.659801208E0,-7.745044098E0,-4.371210022E0,2.057621155E0,9.128361844E0
7.669827208E0,-7.604785767E0,-4.409380646E0,1.937271423E0,9.001579017E0
7.679853208E0,-7.533833313E0,-4.393813019E0,1.623074799E0,8.871223649E0
7.689879208E0,-7.742499390E0,-4.402944031E0,1.199156342E0,8.987223646E0
7.699905208E0,-8.081544342E0,-4.360133057E0,6.224057007E-1,9.203776838E0
7.709931208E0,-8.356073456E0,-4.269272003E0,-2.619552612E-2,9.383567192E0
7.719957208E0,-8.588989105E0,-4.154760132E0,-5.138813782E-1,9.554937973E0
7.729983208E0,-8.727900238E0,-4.067641296E0,-9.556127930E-1,9.676525414E0
7.740009208E0,-8.941056976E0,-4.000880127E0,-1.337917786E0,9.886332265E0
7.750035208E0,-9.147627411E0,-4.056564331E0,-1.464853821E0,1.011338708E1
7.760061208E0,-9.278605042E0,-4.128115540E0,-1.534758453E0,1.027080001E1
7.770087208E0,-9.297765198E0,-4.143982544E0,-1.491648102E0,1.028815061E1
7.780113208E0,-9.205407257E0,-4.123325500E0,-1.222208405E0,1.016046895E1
7.790139208E0,-8.948990479E0,-4.081113281E0,-7.945477295E-1,9.867685762E0
7.800165208E0,-8.567134552E0,-4.005670166E0,-3.394940186E-1,9.463426657E0
7.810191208E0,-8.196954346E0,-3.972439270E0,1.224453735E-1,9.109628267E0
7.820217208E0,-8.114924927E0,-3.907174988E0,5.560935974E-1,9.023705616E0
7.830243208E0,-7.866441650E0,-3.810027008E0,7.906558228E-1,8.776237615E0
7.840269208E0,-7.536827087E0,-3.785328369E0,1.106049957E0,8.506222423E0
7.850295208E0,-7.317233734E0,-3.819158020E0,1.372645569E0,8.367319365E0
7.860321208E0,-7.187603302E0,-3.882476349E0,1.415606232E0,8.290910977E0
7.870347208E0,-7.387886810E0,-4.005370789E0,1.491199036E0,8.535077108E0
7.880373208E0,-7.638914795E0,-4.043391724E0,1.631607056E0,8.795690846E0
7.890399208E0,-7.880662079E0,-3.976031799E0,1.623523865E0,8.974936959E0
7.900425208E0,-8.165968781E0,-3.911515961E0,1.604214020E0,9.195461155E0
7.910451208E0,-8.249644775E0,-3.826043701E0,1.596579895E0,9.232784882E0
7.920477208E0,-8.312214661E0,-3.670068054E0,1.356628876E0,9.187097147E0
7.930502208E0,-8.605454865E0,-3.556005249E0,1.094374237E0,9.375323020E0
7.940528208E0,-8.851393433E0,-3.413651276E0,1.031205597E0,9.542723181E0
7.950554208E0,-8.934021606E0,-3.161276093E0,1.013692017E0,9.530896081E0
7.960580208E0,-8.819958801E0,-2.944077759E0,9.380992126E-1,9.345549595E0
7.970606208E0,-8.598569183E0,-2.850222931E0,9.351054382E-1,9.106787850E0
7.980632208E0,-8.290210419E0,-2.852617950E0,7.978408813E-1,8.803497488E0
7.990658208E0,-8.017926636E0,-2.859353943E0,5.866300964E-1,8.532712779E0
8.000684208E0,-7.779472504E0,-2.884052582E0,3.091072083E-1,8.302620008E0
8.010710208E0,-7.818840637E0,-3.007096710E0,2.031275940E-1,8.379627698E0
8.020736208E0,-8.097411346E0,-3.271746368E0,4.261637878E-1,8.743798396E0
8.030762208E0,-8.530311127E0,-3.557651825E0,8.982820129E-1,9.286011254E0
8.040788208E0,-8.854536896E0,-3.839365997E0,1.280886383E0,9.735719019E0
8.050814208E0,-9.243727570E0,-4.184548187E0,1.524130554E0,1.026060022E1
8.060840208E0,-9.503287811E0,-4.557422791E0,1.470841370E0,1.064170832E1
8.070866208E0,-9.627379761E0,-4.751569061E0,1.171164551E0,1.079979055E1
8.080892208E0,-9.754764862E0,-4.753365326E0,8.101153564E-1,1.088146159E1
8.090918208E0,-9.906549225E0,-4.706961823E0,5.469625854E-1,1.098154703E1
8.100944208E0,-9.931846619E0,-4.626878357E0,3.778143311E-1,1.096322600E1
8.110970208E0,-1.010533585E1,-4.713398438E0,2.453398132E-1,1.115321160E1
8.120996208E0,-1.040112076E1,-5.010530548E0,3.076103210E-1,1.154917112E1
8.131022208E0,-1.067071014E1,-5.489684143E0,3.851490784E-1,1.200620784E1
8.141048208E0,-1.081605789E1,-6.109994202E0,4.706213379E-1,1.243143684E1
8.151074208E0,-1.092128906E1,-6.670129395E0,7.987390137E-1,1.282197976E1
8.161100208E0,-1.104059097E1,-7.052284698E0,1.186582489E0,1.315436606E1
8.171126208E0,-1.117575989E1,-7.304061127E0,1.537303162E0,1.343913014E1
8.181152208E0,-1.128623016E1,-7.360194397E0,1.923949127E0,1.361076901E1
8.191178208E0,-1.139235947E1,-7.136409760E0,2.232307892E0,1.362708322E1
8.201204208E0,-1.150193161E1,-6.809040527E0,2.398761749E0,1.357982038E1
8.211230208E0,-1.155716675E1,-6.298751678E0,2.342628479E0,1.336900461E1
8.221255208E0,-1.144011017E1,-5.519621887E0,2.274669800E0,1.290412605E1
8.231281208E0,-1.112756012E1,-4.621339874E0,2.221081238E0,1.225204384E1
8.241307208E0,-1.082503922E1,-3.902684326E0,2.214494934E0,1.171820834E1
8.251333208E0,-1.056083862E1,-3.370840302E0,2.206262054E0,1.130316190E1
8.261359208E0,-1.030307465E1,-3.046165466E0,2.216889954E0,1.097028132E1
8.271385208E0,-1.004590942E1,-3.008443909E0,2.337988129E0,1.074417141E1
8.281411208E0,-9.853858795E0,-3.309168549E0,2.511028290E0,1.069366133E1
8.291437208E0,-9.693542175E0,-3.765419769E0,2.666255493E0,1.073555142E1
8.301463208E0,-9.553882599E0,-4.225862274E0,2.821183319E0,1.082098240E1
8.311489208E0,-9.311087494E0,-4.606371002E0,2.806663513E0,1.076068605E1
8.321515208E0,-9.127868500E0,-4.947810974E0,2.508932648E0,1.068145869E1
8.331541208E0,-9.097182312E0,-5.239254913E0,2.304757233E0,1.074804280E1
8.341567208E0,-9.028774567E0,-5.434748383E0,2.211052094E0,1.076773010E1
8.351593208E0,-8.605005798E0,-5.392536163E0,1.908381500E0,1.033283557E1
8.361619208E0,-8.248447266E0,-5.310656433E0,1.367406464E0,9.905036824E0
8.371645208E0,-8.009244690E0,-5.176086273E0,1.013093262E0,9.589902375E0
8.381671208E0,-7.915090485E0,-5.005740509E0,9.574090576E-1,9.413964496E0
8.391697208E0,-7.962541809E0,-4.856351166E0,1.225351868E0,9.406790415E0
8.401723208E0,-8.005801849E0,-4.842280426E0,1.539698181E0,9.482152365E0
8.411749208E0,-8.026458893E0,-4.957391052E0,1.810485077E0,9.606124329E0
8.421775208E0,-8.153544617E0,-5.159171448E0,2.031275940E0,9.860193801E0
8.431801208E0,-8.429570618E0,-5.333259430E0,2.243384857E0,1.022419154E1
8.441827208E0,-8.725654907E0,-5.328170013E0,2.485431519E0,1.052158824E1
8.451853208E0,-9.149573364E0,-5.154980164E0,2.656076660E0,1.083250924E1
8.461879208E0,-9.692793732E0,-4.892126770E0,2.779569855E0,1.120754939E1
8.471904750E0,-1.043869263E1,-4.521796875E0,2.753973083E0,1.170458536E1
8.481930750E0,-1.116887421E1,-4.154161377E0,2.672692108E0,1.221245638E1
8.491956750E0,-1.176373718E1,-3.833827515E0,2.719544678E0,1.266805704E1
8.501981750E0,-1.193393326E1,-3.574117584E0,2.962339783E0,1.280501997E1
8.512007750E0,-1.164832718E1,-3.482508087E0,3.160827026E0,1.256193521E1
8.522033750E0,-1.102966370E1,-3.598217468E0,3.294648743E0,1.206048757E1
8.532059750E0,-1.030726593E1,-3.893703003E0,3.381767578E0,1.152549374E1
8.542085750E0,-9.412277069E0,-4.073628845E0,3.377875671E0,1.079793756E1
8.552111750E0,-8.385262756E0,-4.086801453E0,3.402873688E0,9.929457535E0
8.562137750E0,-7.483837280E0,-3.996688843E0,3.367547150E0,9.128072959E0
8.572163750E0,-6.777755585E0,-3.823948059E0,3.175047455E0,8.404848355E0
8.582189750E0,-6.262676697E0,-3.644171906E0,2.838846588E0,7.782040750E0
8.592215750E0,-5.985602875E0,-3.516337738E0,2.490221558E0,7.375179745E0
8.602241750E0,-5.862858124E0,-3.420237579E0,2.063009949E0,7.094162426E0
8.612267750E0,-5.696553955E0,-3.081192627E0,1.846709747E0,6.734598122E0
8.622293750E0,-5.433999939E0,-2.484084320E0,1.883832550E0,6.264810877E0
8.632319750E0,-5.382656708E0,-2.286345520E0,1.780098267E0,6.113028620E0
8.642345750E0,-5.424270172E0,-2.368225250E0,1.526974640E0,6.112515790E0
8.652371750E0,-5.472020874E0,-2.578837280E0,1.229692841E0,6.172970002E0
8.662397750E0,-5.528154144E0,-2.766696625E0,9.464817810E-1,6.253872898E0
8.672423750E0,-5.544320526E0,-2.903961182E0,8.211923218E-1,6.312435146E0
8.682449750E0,-5.605243835E0,-2.991379395E0,7.973918152E-1,6.403354031E0
8.692475750E0,-5.848338318E0,-3.067121887E0,8.119116211E-1,6.653532763E0
8.702501750E0,-6.037544861E0,-3.201692047E0,8.378077698E-1,6.885107245E0
8.712527750E0,-6.237079926E0,-3.404819641E0,7.550299072E-1,7.145910225E0
8.722553750E0,-6.682852936E0,-3.494183807E0,6.854246521E-1,7.572294949E0
8.732579750E0,-7.085066528E0,-3.486699371E0,8.515791321E-1,7.942318757E0
8.742605750E0,-7.260651398E0,-3.588338013E0,1.022074585E0,8.163201876E0
8.752631750E0,-7.393574982E0,-3.907025299E0,1.070424042E0,8.430634930E0
8.762657750E0,-7.554340668E0,-4.483177185E0,1.108295288E0,8.854109726E0
8.772682750E0,-7.572902069E0,-5.165158997E0,1.119971008E0,9.234828004E0
8.782708750E0,-7.146139526E0,-5.794300690E0,1.105600891E0,9.266260516E0
8.792734750E0,-6.674021301E0,-6.408174133E0,1.054706726E0,9.312339251E0
8.802760750E0,-6.518794098E0,-7.039112091E0,1.102607117E0,9.657096767E0
8.812786750E0,-6.625671844E0,-7.517517242E0,1.302890625E0,1.010495506E1
8.822812750E0,-6.996001740E0,-7.600893860E0,1.728455658E0,1.047402438E1
8.832838750E0,-7.636968842E0,-7.270231476E0,2.127675476E0,1.075669846E1
8.842864750E0,-8.426127777E0,-6.649622040E0,2.394869843E0,1.099784089E1
8.852890750E0,-9.379944305E0,-5.862409058E0,2.441423035E0,1.132747728E1
8.862916750E0,-1.047626450E1,-5.158572693E0,2.315085754E0,1.190473066E1
8.872942750E0,-1.143651764E1,-4.580474854E0,1.956431580E0,1.247406550E1
8.882968750E0,-1.190489365E1,-4.157155151E0,1.488504639E0,1.269740437E1
8.892994750E0,-1.181927170E1,-3.948788452E0,9.687854004E-1,1.249906632E1
8.903020750E0,-1.133472931E1,-3.995341644E0,2.718347168E-1,1.202134508E1
8.913046750E0,-1.084330124E1,-4.282294922E0,-4.656816101E-1,1.166756577E1
8.923072750E0,-1.065663940E1,-4.602030029E0,-8.452922058E-1,1.163860656E1
8.933098750E0,-1.041010208E1,-4.792883148E0,-8.834628296E-1,1.149445348E1
8.943124750E0,-1.003348526E1,-4.807552643E0,-6.427633667E-1,1.114434985E1
8.953150750E0,-9.722282410E0,-4.848417664E0,-2.263293457E-1,1.086651527E1
8.963176750E0,-9.631720734E0,-4.879702606E0,-5.852828979E-2,1.079745189E1
8.973202750E0,-9.692344666E0,-4.885989532E0,7.664062500E-2,1.085450656E1
8.983228750E0,-9.785750427E0,-4.910688171E0,2.656974792E-1,1.095200278E1
8.993254750E0,-9.774374084E0,-4.899611206E0,5.044509888E-1,1.094527521E1
9.003280750E0,-9.676926727E0,-4.784051514E0,6.623725891E-1,1.081521138E1
9.013306750E0,-9.536668396E0,-4.770429840E0,7.301815796E-1,1.068822764E1
9.023332750E0,-9.408085785E0,-4.865931244E0,8.690927124E-1,1.062754380E1
9.033358750E0,-9.240434418E0,-4.951253815E0,1.164129181E0,1.054778362E1
9.043383750E0,-9.131760406E0,-4.976401520E0,1.339414673E0,1.048559259E1
9.053409750E0,-9.108558655E0,-4.866230621E0,1.542841644E0,1.044157084E1
9.063435750E0,-8.999435577E0,-4.689148865E0,1.775906982E0,1.030202909E1
9.073461750E0,-8.920399933E0,-4.465214539E0,1.782942352E0,1.013363505E1
9.083487750E0,-8.946445770E0,-4.307442627E0,1.557361450E0,1.005078746E1
9.093513750E0,-8.910221100E0,-4.173920288E0,1.315763855E0,9.926977644E0
9.103539750E0,-8.778045959E0,-3.990102539E0,1.296753387E0,9.729161243E0
9.113565750E0,-8.690328369E0,-3.857029266E0,1.421593781E0,9.613501485E0
9.123591750E0,-8.739725647E0,-3.834126892E0,1.469793549E0,9.656273944E0
9.133617750E0,-8.874744873E0,-3.871698761E0,1.338965607E0,9.774659930E0
9.143643750E0,-8.673263855E0,-3.891457672E0,1.375489655E0,9.605254838E0
9.153669750E0,-8.374634857E0,-3.921545105E0,1.540147247E0,9.374704184E0
9.163695750E0,-8.195457458E0,-3.989204407E0,1.642085266E0,9.261518168E0
9.173721750E0,-8.039182434E0,-4.069736938E0,1.520538025E0,9.138011208E0
9.183747750E0,-7.879614258E0,-4.139641571E0,1.433269501E0,9.015498580E0
9.193773750E0,-7.767497406E0,-4.136797485E0,1.493444366E0,8.926224592E0
9.203799750E0,-7.698341217E0,-4.099375305E0,1.650168457E0,8.876507834E0
9.213825750E0,-7.700736237E0,-4.095483398E0,1.771116943E0,8.900066184E0
9.223851750E0,-7.723638611E0,-4.121529236E0,1.747915192E0,8.927306657E0
9.233877750E0,-7.772736511E0,-4.127067719E0,1.737137604E0,8.970271338E0
9.243903750E0,-7.910599823E0,-4.102219391E0,1.617686005E0,9.056638532E0
9.253929750E0,-8.094567261E0,-4.082460480E0,1.392254791E0,9.172070438E0
9.263955750E0,-8.266559601E0,-4.108057251E0,1.192270660E0,9.307719986E0
9.273981750E0,-8.363707581E0,-4.163142700E0,1.013991394E0,9.397421997E0
9.284007750E0,-8.492290192E0,-4.205953674E0,8.503816223E-1,9.514840404E0
9.294033750E0,-8.794811096E0,-4.363575897E0,7.310797119E-1,9.844997429E0
9.304058750E0,-9.263336792E0,-4.540208588E0,7.842192078E-1,1.034591235E1
9.314084750E0,-9.621541901E0,-4.636308746E0,1.032103729E0,1.073008227E1
9.324110750E0,-9.906399536E0,-4.710554352E0,1.207239532E0,1.103555623E1
9.334136750E0,-1.011985565E1,-4.759502563E0,1.240620117E0,1.125182125E1
9.344162750E0,-1.041519150E1,-4.782704315E0,1.241967316E0,1.152792077E1
9.354188750E0,-1.064601151E1,-4.782105560E0,1.358574829E0,1.174954553E1
9.364214750E0,-1.076636124E1,-4.792883148E0,1.500330048E0,1.188012009E1
9.374240750E0,-1.095002930E1,-4.856800232E0,1.545985107E0,1.207815052E1
9.384266750E0,-1.116303635E1,-4.977449341E0,1.610051880E0,1.232804321E1
9.394292750E0,-1.137155273E1,-5.149291992E0,1.644330597E0,1.259091906E1
9.404318750E0,-1.156944122E1,-5.364843750E0,1.589544525E0,1.285146569E1
9.414344750E0,-1.167542084E1,-5.558391266E0,1.643133087E0,1.303499335E1
9.424370750E0,-1.181642761E1,-5.679190063E0,1.642983398E0,1.321289354E1
9.434396750E0,-1.181897232E1,-5.817203064E0,1.574126587E0,1.326671899E1
9.444422750E0,-1.190219925E1,-5.911806335E0,1.526226196E0,1.337688931E1
9.454448750E0,-1.186148392E1,-5.687273254E0,1.465751953E0,1.323587196E1
9.464474750E0,-1.173948761E1,-5.470224609E0,1.371298370E0,1.302380074E1
9.474501000E0,-1.171419022E1,-5.279970245E0,1.214274902E0,1.290638608E1
9.484527000E0,-1.169473068E1,-5.034031677E0,1.108145599E0,1.278030466E1
9.494553000E0,-1.163979492E1,-4.803211670E0,1.022523651E0,1.263333775E1
9.504579000E0,-1.156255554E1,-4.684059448E0,8.928932190E-1,1.250721239E1
9.514605000E0,-1.145717468E1,-4.671036530E0,8.894503784E-1,1.240469895E1
9.524631000E0,-1.143112885E1,-4.637057190E0,1.014290771E0,1.237747114E1
9.534657000E0,-1.125943588E1,-4.674629059E0,1.225052490E0,1.225266530E1
9.544683000E0,-1.106558899E1,-4.823719025E0,1.341809692E0,1.214561559E1
9.554708000E0,-1.078282700E1,-4.934338989E0,1.339863739E0,1.193366223E1
9.564734000E0,-1.053958282E1,-5.104085999E0,1.445843353E0,1.179936282E1
9.574760000E0,-1.035995636E1,-5.330864410E0,1.638941803E0,1.176575290E1
9.584786000E0,-1.011955627E1,-5.512586517E0,1.803000641E0,1.166382616E1
9.594812000E0,-9.714348907E0,-5.665718079E0,1.935624847E0,1.141120413E1
9.604838000E0,-9.321416016E0,-5.823489990E0,2.050136719E0,1.118055870E1
9.614864000E0,-8.973389740E0,-5.981411591E0,2.101929016E0,1.098713400E1
9.624890000E0,-8.601413269E0,-6.084397430E0,2.284100189E0,1.078059906E1
9.634916000E0,-8.322543182E0,-6.241720276E0,2.342778168E0,1.066360195E1
9.644942000E0,-8.125103760E0,-6.316864014E0,2.377356262E0,1.056276029E1
9.654968000E0,-7.865842896E0,-6.215973816E0,2.407294006E0,1.031042576E1
9.664994000E0,-7.639363861E0,-5.984255676E0,2.458487549E0,1.001076207E1
9.675020000E0,-7.442074127E0,-5.677842865E0,2.414628754E0,9.667098786E0
9.685046000E0,-7.242089996E0,-5.381908264E0,2.236948242E0,9.296060538E0
9.695072000E0,-7.129823456E0,-5.086123352E0,1.952240295E0,8.972974726E0
9.705098000E0,-7.025939484E0,-4.821174316E0,1.727707214E0,8.694395875E0
9.715124000E0,-6.942712555E0,-4.556225281E0,1.548080750E0,8.447307289E0
9.725150000E0,-7.000342712E0,-4.363276520E0,1.361418915E0,8.360409173E0
9.735176000E0,-7.101083221E0,-4.209995270E0,1.428629150E0,8.377972567E0
9.745202000E0,-7.051536255E0,-4.067641296E0,1.551074524E0,8.287080394E0
9.755228000E0,-6.938670959E0,-4.042643280E0,1.557960205E0,8.180180889E0
9.765254000E0,-6.914421387E0,-4.084855499E0,1.613943787E0,8.191463978E0
9.775280000E0,-6.905739441E0,-4.095633087E0,1.726509705E0,8.212446856E0
9.785305000E0,-6.816974030E0,-4.063000946E0,1.853146362E0,8.149433296E0
9.795331000E0,-6.820416870E0,-4.044738922E0,1.978435822E0,8.172649970E0
9.805357000E0,-6.935976563E0,-4.013304291E0,2.046993256E0,8.270705145E0
9.815383000E0,-6.937473450E0,-3.919599152E0,1.921105042E0,8.196489490E0
9.825409000E0,-6.887028351E0,-3.831432495E0,1.683099976E0,8.058775341E0
9.835435000E0,-6.707102509E0,-3.741619263E0,1.521286469E0,7.829383838E0
9.845461000E0,-6.379134521E0,-3.652554474E0,1.452878723E0,7.493021287E0
9.855487000E0,-6.194568329E0,-3.665128326E0,1.439556427E0,7.340174735E0
9.865513000E0,-6.110143890E0,-3.788621521E0,1.560504913E0,7.356812284E0
9.875539000E0,-6.102809143E0,-3.916605377E0,1.456321564E0,7.396279444E0
9.885565000E0,-6.102210388E0,-4.069587250E0,1.448687439E0,7.476443493E0
9.895591000E0,-6.189778290E0,-4.295617218E0,1.532662811E0,7.688610918E0
9.905617000E0,-6.438560944E0,-4.587360535E0,1.585652618E0,8.063078688E0
9.915643000E0,-6.633904724E0,-4.887336731E0,1.534758453E0,8.381541369E0
9.925669000E0,-6.920259247E0,-5.145998840E0,1.554217987E0,8.762812657E0
9.935695000E0,-7.073241119E0,-5.364244995E0,1.559307404E0,9.013173907E0
9.945721000E0,-7.206464081E0,-5.454357605E0,1.581311646E0,9.175166917E0
9.955747000E0,-7.573051758E0,-5.574108582E0,1.635948029E0,9.544533795E0
9.965773000E0,-7.785010986E0,-5.654491425E0,1.534758453E0,9.743467188E0
9.975799000E0,-8.173902283E0,-5.700296173E0,1.439257050E0,1.006864022E1
9.985825000E0,-8.618777161E0,-5.808670807E0,1.388063507E0,1.048573777E1
9.995851000E0,-9.048683167E0,-6.006559296E0,1.211430817E0,1.092817397E1
1.000587700E1,-9.292675781E0,-6.196065216E0,1.122366028E0,1.122518387E1
1.001590300E1,-9.231303406E0,-6.458170166E0,9.081614685E-1,1.130264048E1
1.002592800E1,-9.022637329E0,-6.756200409E0,6.860234070E-1,1.129269040E1
1.003595400E1,-8.608448639E0,-6.978787537E0,4.990621948E-1,1.109314773E1
1.004598000E1,-8.285570068E0,-7.203769684E0,2.122586060E-1,1.098134886E1
1.005600600E1,-7.988437958E0,-7.407945099E0,4.760101318E-2,1.089472613E1
1.006603200E1,-8.051007843E0,-7.421117706E0,2.335144043E-2,1.094953244E1
1.007605800E1,-8.292904816E0,-7.243586884E0,2.266287231E-1,1.101331838E1
1.008608400E1,-8.762628021E0,-6.933132477E0,8.602610779E-1,1.120678477E1
1.009611000E1,-9.160800018E0,-6.659950562E0,1.893861694E0,1.148311415E1
1.010613600E1,-9.286388855E0,-6.170019379E0,2.636617126E0,1.145678432E1
1.011616200E1,-9.339228973E0,-5.673202515E0,2.907104645E0,1.130741712E1
1.012618800E1,-9.407936096E0,-5.386099548E0,2.967878265E0,1.123955655E1
1.013621400E1,-9.396410065E0,-5.163961487E0,3.089425507E0,1.115811679E1
1.014624000E1,-9.323212280E0,-4.914879456E0,3.138972473E0,1.099688481E1
1.015626600E1,-9.380692749E0,-4.676724701E0,2.840044098E0,1.085978825E1
1.016629200E1,-9.598040771E0,-4.500990143E0,2.192939758E0,1.082544612E1
1.017631800E1,-9.753567352E0,-4.236939240E0,1.183439026E0,1.069973169E1
1.018634400E1,-9.842632141E0,-3.967200165E0,1.492396545E-1,1.061312193E1
1.019637000E1,-1.005593857E1,-3.857478333E0,-5.605842590E-1,1.078500321E1
1.020639600E1,-1.027687912E1,-3.763623505E0,-1.062191162E0,1.099578812E1
1.021642200E1,-1.037612274E1,-3.791016541E0,-1.343007202E0,1.112831514E1
1.022644800E1,-1.045186523E1,-3.953129425E0,-1.252146149E0,1.124440257E1
1.023647400E1,-1.043884232E1,-4.050876160E0,-7.553292847E-1,1.122272466E1
1.024649900E1,-1.034513718E1,-4.039499817E0,-1.706451416E-1,1.110713922E1
1.025652500E1,-1.026999344E1,-3.969744873E0,2.402503967E-1,1.101314487E1
1.026655100E1,-1.015278717E1,-4.027075653E0,5.863307190E-1,1.093801670E1
1.027657700E1,-9.872869263E0,-4.093986511E0,8.659492493E-1,1.072306585E1
1.028660300E1,-9.560768280E0,-4.005370789E0,1.101858673E0,1.042426869E1
1.029662900E1,-9.320966949E0,-3.799399109E0,1.256786499E0,1.014373554E1
1.030665500E1,-9.163494415E0,-3.596570892E0,1.338516541E0,9.934615172E0
1.031668100E1,-9.159602509E0,-3.461102600E0,1.304836578E0,9.878266438E0
1.032670700E1,-9.088051300E0,-3.408711548E0,1.211730194E0,9.781629768E0
1.033673300E1,-8.963360596E0,-3.318000183E0,1.144220581E0,9.626016784E0
1.034675900E1,-8.843908997E0,-3.320993958E0,1.040486298E0,9.504016990E0
1.035678500E1,-8.811725922E0,-3.377875671E0,9.951306152E-1,9.489301487E0
1.036681100E1,-8.743318176E0,-3.335364075E0,1.072220306E0,9.419125364E0
1.037683700E1,-8.623118134E0,-3.359314270E0,1.113085327E0,9.321057754E0
1.038686300E1,-8.557554474E0,-3.435954895E0,1.011296997E0,9.276866186E0
1.039688900E1,-8.504265289E0,-3.422333221E0,9.434880066E-1,9.215479500E0
1.040691500E1,-8.460256805E0,-3.373534698E0,9.237290955E-1,9.154777825E0
1.041694100E1,-8.494834900E0,-3.380719757E0,9.101074219E-1,9.188023812E0
1.042696700E1,-8.640931091E0,-3.393592987E0,1.106499023E0,9.349144537E0
1.043699300E1,-8.651708679E0,-3.390898590E0,1.121018829E0,9.359857880E0
1.044701900E1,-8.744216309E0,-3.457510071E0,1.121018829E0,9.469550040E0
1.045704500E1,-8.735085297E0,-3.446732483E0,1.162332916E0,9.462171937E0
1.046707100E1,-8.720715179E0,-3.426674194E0,1.196012878E0,9.445814739E0
1.047709621E1,-8.703650665E0,-3.445235596E0,1.177750854E0,9.434525971E0
1.048712221E1,-8.656798096E0,-3.487447815E0,1.006506958E0,9.386985767E0
1.049714821E1,-8.675808563E0,-3.554208984E0,9.054670715E-1,9.419231728E0
1.050717421E1,-8.721014557E0,-3.669918365E0,9.015751648E-1,9.504590127E0
1.051720021E1,-8.770561523E0,-3.890409851E0,8.141569519E-1,9.629168697E0
1.052722621E1,-8.923842773E0,-4.232897644E0,7.786807251E-1,9.907509070E0
1.053725221E1,-9.181606750E0,-4.547543335E0,8.563691711E-1,1.028180048E1
1.054727821E1,-9.467362518E0,-4.740492096E0,1.033899994E0,1.063824081E1
1.055730421E1,-9.713001709E0,-5.047803040E0,1.268312531E0,1.101958867E1
1.056733021E1,-9.965975647E0,-5.253774719E0,1.370699615E0,1.134908088E1
1.057735621E1,-1.010039612E1,-5.264252930E0,1.337319031E0,1.146816388E1
1.058738221E1,-1.025981461E1,-5.353467407E0,1.471589813E0,1.166571839E1
1.059740821E1,-1.049512527E1,-5.403463440E0,1.553918610E0,1.190628971E1
1.060743421E1,-1.064376617E1,-5.401517487E0,1.468596039E0,1.202592715E1
1.061746021E1,-1.072983719E1,-5.585335236E0,1.377285919E0,1.217465779E1
1.062748621E1,-1.075214081E1,-5.882916412E0,1.286574554E0,1.232365658E1
1.063751221E1,-1.070453979E1,-6.215375061E0,1.260678406E0,1.244216096E1
1.064753821E1,-1.066786606E1,-6.534661102E0,1.339414673E0,1.258170074E1
1.065756421E1,-1.067460205E1,-6.772516479E0,1.534908142E0,1.273460056E1
1.066759021E1,-1.062325882E1,-6.905140686E0,1.812730408E0,1.279924167E1
1.067761621E1,-1.049362839E1,-6.901398468E0,2.076781311E0,1.273022224E1
1.068764121E1,-1.023571472E1,-6.657405853E0,2.055525513E0,1.238208761E1
1.069766721E1,-1.011237122E1,-6.463708649E0,1.920655975E0,1.215436138E1
1.070769321E1,-1.014350647E1,-6.074068909E0,1.941762085E0,1.198146388E1
1.071771921E1,-1.009919861E1,-5.502856750E0,1.977687378E0,1.166989684E1
1.072774521E1,-1.010788055E1,-5.004243622E0,1.921254730E0,1.144128154E1
1.073777121E1,-1.015997223E1,-4.625680847E0,1.821562042E0,1.131105863E1
1.074779721E1,-1.013557297E1,-4.312981110E0,1.722318420E0,1.114890246E1
1.075782321E1,-1.004067032E1,-4.101171570E0,1.624272308E0,1.096690153E1
1.076784921E1,-9.916578369E0,-4.075724487E0,1.405277710E0,1.081318002E1
1.077787521E1,-9.861043854E0,-4.148922272E0,1.413660278E0,1.079130100E1
1.078790121E1,-9.858648834E0,-4.110601959E0,1.218615875E0,1.075058277E1
1.079792721E1,-9.877060547E0,-4.394561462E0,1.150058441E0,1.087157440E1
1.080795321E1,-9.857151947E0,-4.748425598E0,1.204096069E0,1.100730837E1
1.081797921E1,-9.743089142E0,-5.004393311E0,1.313518524E0,1.103163947E1
1.082800521E1,-9.557624817E0,-5.228177948E0,1.566193085E0,1.100613454E1
1.083803121E1,-9.332343292E0,-5.386997681E0,1.795516205E0,1.092411341E1
1.084805721E1,-9.120833130E0,-5.441783752E0,1.891766052E0,1.078802049E1
1.085808321E1,-8.890911255E0,-5.402565308E0,2.018103333E0,1.059758255E1
1.086810921E1,-8.663683777E0,-5.299579468E0,2.074236603E0,1.036568457E1
1.087813521E1,-8.474776611E0,-5.183271332E0,2.111060028E0,1.015601865E1
1.088816121E1,-8.336763611E0,-5.033133545E0,2.109413452E0,9.964119926E0
1.089818721E1,-8.105045471E0,-4.870122528E0,2.175725555E0,9.702764411E0
1.090821221E1,-7.789801025E0,-4.699627075E0,2.160756683E0,9.350741367E0
1.091823821E1,-7.565567322E0,-4.541106720E0,2.143392792E0,9.080396016E0
1.092826421E1,-7.442972260E0,-4.384532318E0,2.265389099E0,8.930506563E0
1.093829021E1,-7.434290314E0,-4.203858032E0,2.399659882E0,8.871271745E0
1.094831621E1,-7.577392731E0,-4.057312775E0,2.550097046E0,8.965582105E0
1.095834221E1,-7.813002777E0,-3.921844482E0,2.680026855E0,9.143654657E0
1.096836821E1,-7.981402588E0,-3.840413818E0,2.787503357E0,9.285566247E0
1.097839421E1,-8.047265625E0,-3.854933624E0,2.815944214E0,9.356737631E0
1.098842021E1,-8.144862671E0,-3.958967285E0,2.736010437E0,9.460336305E0
1.099844621E1,-8.144114227E0,-4.070186005E0,2.563569031E0,9.458588522E0
1.100847221E1,-8.083041229E0,-4.113745422E0,2.551294556E0,9.421653826E0
1.101849821E1,-7.912695465E0,-4.108057251E0,2.603086853E0,9.287784723E0
1.102852421E1,-7.680677948E0,-4.105362854E0,2.489922180E0,9.057953984E0
1.103855021E1,-7.464078369E0,-4.071982269E0,2.377206573E0,8.828624842E0
1.104857621E1,-7.254214783E0,-3.907324677E0,2.313289490E0,8.558161397E0
1.105860221E1,-7.136858826E0,-3.684587860E0,2.290985870E0,8.352218738E0
1.106862821E1,-7.064708862E0,-3.463647308E0,2.286944275E0,8.193721871E0
1.107865421E1,-7.037166138E0,-3.286266174E0,2.282752991E0,8.095196961E0
1.108868021E1,-6.962321777E0,-3.135978699E0,2.294129333E0,7.973162254E0
1.109870521E1,-6.863976288E0,-3.058739319E0,2.266287231E0,7.848956269E0
1.110873121E1,-6.855294342E0,-3.145109711E0,2.090253296E0,7.826617050E0
1.111875721E1,-6.812483368E0,-3.173999634E0,1.801054688E0,7.728389308E0
1.112878321E1,-6.701114960E0,-3.399430847E0,1.643731842E0,7.691744026E0
1.113880921E1,-6.678511963E0,-3.597169647E0,1.688788147E0,7.771367763E0
1.114883521E1,-6.534361725E0,-3.682192841E0,1.690434723E0,7.688562728E0
1.115886121E1,-6.465055847E0,-3.857029266E0,1.695823517E0,7.716828317E0
1.116888721E1,-6.494993591E0,-4.017794952E0,1.651815033E0,7.813840985E0
1.117891321E1,-6.555767212E0,-4.133504333E0,1.525028687E0,7.898712193E0
1.118893921E1,-6.658902740E0,-4.204007721E0,1.330283661E0,7.986508702E0
1.119896521E1,-6.800508270E0,-4.229454803E0,1.163380737E0,8.092506127E0
1.120899121E1,-7.010371857E0,-4.226610718E0,9.949809265E-1,8.246183285E0
1.121901721E1,-7.322323151E0,-4.226760406E0,9.042695618E-1,8.502918516E0
1.122904321E1,-7.613318024E0,-4.340374146E0,9.651928711E-1,8.816635205E0
1.123906921E1,-7.713609467E0,-4.445305939E0,8.460406494E-1,8.942946979E0
1.124909521E1,-8.017627258E0,-4.733606415E0,6.842271423E-1,9.335820442E0
1.125912121E1,-8.487500153E0,-5.142705688E0,6.677613831E-1,9.946405678E0
1.126914721E1,-8.917406158E0,-5.537285156E0,7.628137207E-1,1.052442608E1
1.127917321E1,-9.006321259E0,-5.745801544E0,9.024732971E-1,1.072112476E1
1.128919921E1,-8.848249969E0,-5.818699951E0,1.119222565E0,1.064901196E1
1.129922421E1,-8.802894287E0,-5.888604584E0,1.312919769E0,1.067194313E1
1.130925021E1,-8.917256470E0,-5.967939606E0,1.372795258E0,1.081750123E1
1.131927621E1,-9.060807953E0,-5.941893768E0,1.281934204E0,1.091089811E1
1.132930221E1,-9.256151733E0,-5.765859833E0,1.212778015E0,1.097234319E1
1.133932821E1,-9.302255859E0,-5.463338928E0,1.170715485E0,1.085129536E1
1.134935421E1,-9.224567413E0,-5.167104950E0,1.104553070E0,1.063069400E1
1.135938021E1,-9.218130798E0,-4.870122528E0,1.185384979E0,1.049271969E1
1.136940621E1,-9.335636444E0,-4.592449951E0,1.259780273E0,1.048006444E1
1.137943221E1,-9.590406647E0,-4.398153992E0,1.298699341E0,1.063044111E1
1.138945821E1,-9.958640900E0,-4.276906128E0,1.527423706E0,1.094529478E1
1.139948421E1,-1.026056305E1,-4.199966125E0,1.693428497E0,1.121546119E1
1.140951021E1,-1.072295151E1,-4.115990753E0,1.860481110E0,1.163548275E1
1.141953621E1,-1.098011673E1,-3.970044250E0,1.968706055E0,1.184060886E1
1.142956221E1,-1.115839600E1,-4.037853241E0,1.920206909E0,1.202086746E1
1.143958821E1,-1.126692032E1,-4.098028107E0,1.887874146E0,1.213677868E1
1.144961421E1,-1.138846756E1,-4.085005188E0,1.725611572E0,1.222138274E1
1.145964021E1,-1.146855103E1,-4.045337677E0,1.449735260E0,1.224720996E1
1.146966608E1,-1.140448425E1,-3.927233276E0,1.092577972E0,1.211111675E1
1.147969208E1,-1.113639175E1,-3.666475525E0,8.161029053E-1,1.175279916E1
1.148971808E1,-1.072325089E1,-3.357817383E0,7.051835632E-1,1.125878905E1
1.149974308E1,-1.042207718E1,-3.096011810E0,6.105802917E-1,1.088934296E1
1.150976908E1,-1.009815079E1,-2.947670288E0,3.716770935E-1,1.052613668E1
1.151979508E1,-9.842931519E0,-2.937940521E0,8.232879639E-2,1.027236942E1
1.152982108E1,-9.723180542E0,-2.998714142E0,-1.104702759E-1,1.017569310E1
1.153984708E1,-9.623936920E0,-2.988385620E0,-2.926414490E-1,1.008148052E1
1.154987308E1,-9.416168976E0,-2.872676239E0,-5.523513794E-1,9.860101369E0
1.155989908E1,-9.263486481E0,-2.780018921E0,-8.527766418E-1,9.709166544E0
1.156992508E1,-9.168583832E0,-2.725681915E0,-9.611512756E-1,9.613328412E0
1.157995108E1,-9.070986786E0,-2.660567322E0,-9.096583557E-1,9.496783564E0
1.158997708E1,-9.047934723E0,-2.655926971E0,-6.966513062E-1,9.455389673E0
1.160000308E1,-9.116492157E0,-2.821482697E0,-4.099974060E-1,9.551926074E0
1.161002908E1,-9.184899902E0,-3.059338074E0,-2.664459229E-2,9.681045687E0
1.162005508E1,-9.172775116E0,-3.227588196E0,3.460803223E-1,9.730205572E0
1.163008108E1,-9.159752197E0,-3.376378784E0,6.718029785E-1,9.785311096E0
1.164010708E1,-9.133856049E0,-3.562441864E0,8.943901062E-1,9.844706802E0
1.165013308E1,-9.164392548E0,-3.716321869E0,1.131946106E0,9.953815398E0
1.166015908E1,-9.107959900E0,-3.752995605E0,1.437760162E0,9.955253078E0
1.167018508E1,-8.974587250E0,-3.710184631E0,1.647474060E0,9.850018126E0
1.168021008E1,-8.932375031E0,-3.738775177E0,1.739832001E0,9.838332120E0
1.169023608E1,-8.912017365E0,-3.737577667E0,1.712738342E0,9.814632594E0
1.170026208E1,-8.762478333E0,-3.661984863E0,1.622326355E0,9.634474686E0
1.171028808E1,-8.519982605E0,-3.591780853E0,1.577868805E0,9.379800811E0
1.172031408E1,-8.283923492E0,-3.536994781E0,1.580862579E0,9.145099617E0
1.173034008E1,-8.104895782E0,-3.548520813E0,1.524729309E0,8.978091950E0
1.174036608E1,-7.962691498E0,-3.602259064E0,1.455273743E0,8.859940627E0
1.175039208E1,-7.823780365E0,-3.654350739E0,1.519639893E0,8.767846025E0
1.176041808E1,-7.712711334E0,-3.654051361E0,1.532812500E0,8.671073846E0
1.177044408E1,-7.775131531E0,-3.752247162E0,1.561552734E0,8.773281942E0
1.178047008E1,-7.858358459E0,-3.930676117E0,1.573677521E0,8.926391956E0
1.179049608E1,-8.054001617E0,-4.136797485E0,1.399140472E0,9.161748171E0
1.180052208E1,-8.271948395E0,-4.346511383E0,1.285227356E0,9.432343336E0
1.181054808E1,-8.532107391E0,-4.534520416E0,1.160087585E0,9.731625514E0
1.182057408E1,-8.753497009E0,-4.698130188E0,1.055754547E0,9.990533260E0
1.183060008E1,-8.966054993E0,-4.843627625E0,1.086889801E0,1.024852185E1
1.184062608E1,-9.209748230E0,-4.945865021E0,1.145567780E0,1.051633818E1
1.185065208E1,-9.504036255E0,-5.066813507E0,1.208886108E0,1.083792922E1
1.186067708E1,-9.874216461E0,-5.130580902E0,1.328936462E0,1.120665353E1
1.187070308E1,-1.028945297E1,-5.151537323E0,1.436712341E0,1.159634950E1
1.188072908E1,-1.075782898E1,-5.484295349E0,1.520987091E0,1.217052922E1
1.189075508E1,-1.116468292E1,-5.969735870E0,1.557211761E0,1.275589274E1
1.190078108E1,-1.140598114E1,-6.420149231E0,1.557810516E0,1.318110373E1
1.191080708E1,-1.148172363E1,-6.768624573E0,1.751807098E0,1.344295668E1
1.192083308E1,-1.165356628E1,-7.070247345E0,2.013013916E0,1.377846979E1
1.193085908E1,-1.188962540E1,-7.313042450E0,2.127825165E0,1.411989454E1
1.194088508E1,-1.200069443E1,-7.288643188E0,2.116149445E0,1.419926318E1
1.195091108E1,-1.209170517E1,-6.781348114E0,1.943408661E0,1.399903044E1
1.196093708E1,-1.198362991E1,-5.973777466E0,1.747017059E0,1.350353553E1
1.197096308E1,-1.156135803E1,-5.093757477E0,1.489552460E0,1.272124724E1
1.198098908E1,-1.112980545E1,-4.248016205E0,1.139430542E0,1.196731018E1
1.199101508E1,-1.078597046E1,-3.599864044E0,7.493417358E-1,1.139551196E1
1.200104108E1,-1.052266800E1,-3.158132629E0,4.978646851E-1,1.099764578E1
1.201106708E1,-1.022014709E1,-2.963986359E0,3.390449524E-1,1.064666958E1
1.202109308E1,-9.801467743E0,-2.913840637E0,3.384461975E-1,1.023102062E1
1.203111908E1,-9.378746796E0,-2.971620483E0,4.233197021E-1,9.847366111E0
1.204114508E1,-9.015003204E0,-3.180585938E0,4.451742554E-1,9.569983793E0
1.205117008E1,-8.840316467E0,-3.472029877E0,3.996688843E-1,9.506099196E0
1.206119608E1,-8.722361755E0,-3.733985138E0,3.640429688E-1,9.494986408E0
1.207122208E1,-8.672814789E0,-4.017645264E0,2.456391907E-1,9.561355994E0
1.208124808E1,-8.634045410E0,-4.249962158E0,2.127076721E-1,9.625703249E0
1.209127408E1,-8.548423462E0,-4.348607025E0,3.165916443E-1,9.596153240E0
1.210130008E1,-8.400381317E0,-4.450844421E0,4.857398987E-1,9.519052767E0
1.211132608E1,-8.202193451E0,-4.618495789E0,5.671705627E-1,9.430173021E0
1.212135208E1,-7.964637451E0,-4.774022369E0,5.950126648E-1,9.304879332E0
1.213137808E1,-7.737260284E0,-4.764591980E0,7.758366394E-1,9.119674113E0
1.214140408E1,-7.639663239E0,-4.778213654E0,9.041198730E-1,9.056114667E0
1.215143008E1,-7.582033081E0,-4.616699524E0,1.120869141E0,8.947484997E0
1.216145608E1,-7.479346619E0,-4.355792084E0,1.213376770E0,8.739898953E0
1.217148208E1,-7.404352570E0,-4.088597717E0,1.350641327E0,8.565354649E0
1.218150808E1,-7.317383423E0,-3.792513428E0,1.492396545E0,8.375828658E0
1.219153408E1,-7.309449921E0,-3.559148712E0,1.595981140E0,8.285092244E0
1.220156008E1,-7.379953308E0,-3.422183533E0,1.739532623E0,8.318715328E0
1.221158608E1,-7.370522919E0,-3.359164581E0,1.863774261E0,8.311573213E0
1.222161108E1,-7.296277313E0,-3.352727966E0,1.873653717E0,8.245424531E0
1.223163708E1,-7.254514160E0,-3.410956879E0,1.929038544E0,8.245228452E0
1.224166308E1,-7.230414276E0,-3.463198242E0,2.158511353E0,8.302517927E0
1.225168908E1,-7.223977661E0,-3.506907349E0,2.308798828E0,8.355525383E0
1.226171508E1,-7.326664124E0,-3.579955444E0,2.438578949E0,8.511331004E0
1.227174108E1,-7.425608368E0,-3.570225677E0,2.459685059E0,8.598617424E0
1.228176708E1,-7.536378021E0,-3.526067505E0,2.489024048E0,8.684779009E0
1.229179308E1,-7.592660980E0,-3.453917542E0,2.457290039E0,8.695764571E0
1.230181908E1,-7.658673706E0,-3.350033569E0,2.307601318E0,8.671968156E0
1.231184508E1,-7.688611450E0,-3.236270142E0,2.190544739E0,8.624771111E0
1.232187108E1,-7.650141449E0,-3.114423523E0,2.124382324E0,8.528616437E0
1.233189708E1,-7.612270203E0,-3.060385895E0,2.120340729E0,8.473987507E0
1.234192308E1,-7.480843506E0,-3.053500214E0,2.021995239E0,8.329186507E0
1.235194908E1,-7.290589142E0,-3.099454651E0,1.929038544E0,8.153557437E0
1.236197508E1,-7.133266296E0,-3.193608856E0,1.944456482E0,8.053790200E0
1.237200108E1,-7.023394775E0,-3.294948120E0,2.036814423E0,8.020808580E0
1.238202708E1,-7.038363647E0,-3.479364624E0,2.161954193E0,8.143622471E0
1.239205208E1,-7.065307617E0,-3.643722839E0,2.269281006E0,8.267098895E0
1.240207808E1,-7.046596527E0,-3.785627747E0,2.364033966E0,8.341112434E0
1.241210408E1,-7.118297424E0,-3.968697052E0,2.375709686E0,8.489093652E0
1.242213008E1,-7.324418793E0,-4.120631104E0,2.286046143E0,8.709346606E0
1.243215608E1,-7.643704834E0,-4.232149200E0,2.137105865E0,8.994694654E0
1.244218208E1,-8.058492279E0,-4.330345001E0,1.970652008E0,9.358133093E0
1.245220808E1,-8.517437897E0,-4.456382904E0,1.804048462E0,9.780628189E0
1.246223408E1,-8.831634521E0,-4.504582672E0,1.482068024E0,1.002424855E1
1.247226021E1,-9.038953400E0,-4.541555786E0,1.270857239E0,1.019526781E1
1.248228621E1,-9.016949158E0,-4.577181702E0,1.161584473E0,1.017866607E1
1.249231221E1,-8.875942383E0,-4.559219055E0,1.027613068E0,1.003119236E1
1.250233821E1,-8.942853241E0,-4.665348358E0,1.027912445E0,1.013887091E1
1.251236421E1,-8.941356354E0,-4.839136963E0,1.059496765E0,1.022191926E1
1.252239021E1,-8.978030090E0,-5.120701447E0,1.103954315E0,1.039448521E1
1.253241621E1,-9.010961609E0,-5.475164337E0,1.250050507E0,1.061779073E1
1.254244221E1,-9.179960175E0,-5.900579681E0,1.376238098E0,1.099920637E1
1.255246721E1,-9.349856873E0,-6.235583038E0,1.574276276E0,1.134815691E1
1.256249321E1,-9.633516998E0,-6.514004059E0,1.849104767E0,1.177523193E1
1.257251921E1,-1.003887405E1,-6.758894806E0,1.905836792E0,1.225128014E1
1.258254521E1,-1.035606445E1,-6.791976013E0,1.848206635E0,1.252177611E1
1.259257121E1,-1.053973251E1,-6.403084717E0,1.773661652E0,1.245918661E1
1.260259721E1,-1.063074326E1,-6.061045990E0,1.425635376E0,1.231996010E1
1.261262321E1,-1.069810318E1,-5.395529938E0,1.065184937E0,1.202895564E1
1.262264921E1,-1.045470932E1,-4.504432983E0,7.360194397E-1,1.140756714E1
1.263267521E1,-1.030981064E1,-3.942501526E0,4.923262024E-1,1.104888677E1
1.264270121E1,-1.017628830E1,-3.533252563E0,4.337979126E-1,1.078095069E1
1.265272721E1,-1.016581009E1,-3.336561584E0,5.358856201E-1,1.071277328E1
1.266275321E1,-1.038076309E1,-3.412902832E0,8.433462524E-1,1.095989877E1
1.267277921E1,-1.059631485E1,-3.551664276E0,1.017134857E0,1.122188802E1
1.268280521E1,-1.081126785E1,-3.785178680E0,1.117276611E0,1.150910063E1
1.269283121E1,-1.095871124E1,-3.986210632E0,1.204395447E0,1.172321610E1
1.270285721E1,-1.100676132E1,-4.052971802E0,1.073866882E0,1.177830910E1
1.271288321E1,-1.101589233E1,-4.077670441E0,7.785310364E-1,1.177214469E1
1.272290821E1,-1.094553864E1,-4.052223358E0,3.763174438E-1,1.167762583E1
1.273293421E1,-1.076815750E1,-4.014651489E0,-3.173400879E-2,1.149224302E1
1.274296021E1,-1.048704208E1,-3.959566040E0,-3.147953796E-1,1.121406755E1
1.275298621E1,-1.022074585E1,-3.926634521E0,-5.486091614E-1,1.096280422E1
1.276301221E1,-9.934840393E0,-3.922143860E0,-6.451583862E-1,1.070049043E1
1.277303821E1,-9.575288086E0,-3.886667633E0,-5.664221191E-1,1.034954884E1
1.278306421E1,-9.158704376E0,-3.814068604E0,-4.158352661E-1,9.929849150E0
1.279309021E1,-8.733588409E0,-3.754791870E0,-1.511856079E-1,9.507727677E0
1.280311621E1,-8.274642792E0,-3.740870819E0,1.053808594E-1,9.081571061E0
1.281314221E1,-7.912545776E0,-3.704496460E0,4.137396240E-1,8.746591059E0
1.282316821E1,-7.658823395E0,-3.613785095E0,6.863227844E-1,8.496355541E0
1.283319421E1,-7.390281830E0,-3.557352448E0,7.999365234E-1,8.240808237E0
1.284322021E1,-7.154671783E0,-3.506308594E0,8.599617004E-1,8.013929274E0
1.285324621E1,-6.896907806E0,-3.462749176E0,7.667056274E-1,7.755372761E0
1.286327221E1,-6.660848694E0,-3.512445831E0,5.316943359E-1,7.548965486E0
1.287329721E1,-6.577621765E0,-3.580853577E0,5.894741821E-1,7.512329881E0
1.288332321E1,-6.431076508E0,-3.723806305E0,6.798861694E-1,7.462420763E0
1.289334921E1,-6.379284210E0,-3.916455688E0,6.906637573E-1,7.517373785E0
1.290337521E1,-6.437064056E0,-4.089046783E0,7.741900635E-1,7.665211512E0
1.291340121E1,-6.453529816E0,-4.164938965E0,8.071215820E-1,7.723095811E0
1.292342721E1,-6.521937561E0,-4.206702118E0,8.632548523E-1,7.808791276E0
1.293345321E1,-6.647526398E0,-4.196972351E0,9.511221313E-1,7.918889912E0
1.294347921E1,-6.744524689E0,-4.166884918E0,1.017284546E0,7.992897538E0
1.295350521E1,-6.900051270E0,-4.159101105E0,1.094374237E0,8.130589431E0
1.296353121E1,-7.069947968E0,-4.199517059E0,9.898915100E-1,8.282511274E0
1.297355721E1,-7.204817505E0,-4.213887177E0,8.506809998E-1,8.389868806E0
1.298358321E1,-7.274422760E0,-4.079017639E0,8.011340332E-1,8.378390486E0
1.299360921E1,-7.295079803E0,-3.860023041E0,6.777905273E-1,8.281145284E0
1.300363521E1,-7.425458679E0,-3.737128601E0,5.824388123E-1,8.333234771E0
1.301366121E1,-7.651788025E0,-3.706891479E0,6.550378418E-1,8.527601010E0
1.302368721E1,-7.768096161E0,-3.693718872E0,8.020321655E-1,8.638873345E0
1.303371221E1,-7.746540985E0,-3.756588135E0,8.737330627E-1,8.653569270E0
1.304373821E1,-7.726782074E0,-3.905229034E0,9.496252441E-1,8.709521407E0
1.305376421E1,-7.789202271E0,-4.001927948E0,1.046174469E0,8.819386619E0
1.306379021E1,-7.949818268E0,-4.093537445E0,1.014590149E0,8.999225104E0
1.307381621E1,-8.271948395E0,-4.202510834E0,9.485774231E-1,9.326629974E0
1.308384221E1,-8.668174438E0,-4.269272003E0,9.440867615E-1,9.708513344E0
1.309386821E1,-9.036109314E0,-4.360731812E0,9.336085510E-1,1.007665016E1
1.310389421E1,-9.394613800E0,-4.425397339E0,8.860075378E-1,1.042247185E1
1.311392021E1,-9.682614899E0,-4.528981934E0,8.262817383E-1,1.072135487E1
1.312394621E1,-9.972861328E0,-4.621190186E0,6.899153137E-1,1.101314419E1
1.313397221E1,-1.018946091E1,-4.736749878E0,5.761518860E-1,1.125139387E1
1.314399821E1,-1.032238449E1,-4.841082916E0,6.135740662E-1,1.141771337E1
1.315402421E1,-1.054991135E1,-4.973856812E0,7.677534485E-1,1.168885479E1
1.316405021E1,-1.087698120E1,-5.236410828E0,1.017733612E0,1.211463991E1
1.317407621E1,-1.108624603E1,-5.617518311E0,1.232686615E0,1.248923054E1
1.318410221E1,-1.120105728E1,-5.948929138E0,1.350940704E0,1.275454754E1
1.319412721E1,-1.125464584E1,-6.140979767E0,1.434167633E0,1.290098920E1
1.320415321E1,-1.130434250E1,-6.195915527E0,1.521735535E0,1.298049335E1
1.321417921E1,-1.136526581E1,-6.167774048E0,1.555265808E0,1.302419116E1
1.322420521E1,-1.151136200E1,-6.146218872E0,1.594184875E0,1.314644009E1
1.323423121E1,-1.159324173E1,-6.021079102E0,1.639241180E0,1.316600771E1
1.324425721E1,-1.170221512E1,-5.738167419E0,1.663341064E0,1.313906798E1
1.325428321E1,-1.172541687E1,-5.318589935E0,1.581012268E0,1.297198518E1
1.326430921E1,-1.171613617E1,-4.870870972E0,1.570683746E0,1.278515851E1
1.327433521E1,-1.173709259E1,-4.418361969E0,1.613195343E0,1.264451123E1
1.328436121E1,-1.169727539E1,-3.985013123E0,1.571731567E0,1.245700290E1
1.329438721E1,-1.166164948E1,-3.645369415E0,1.489851837E0,1.230863295E1
1.330441321E1,-1.160282181E1,-3.399131470E0,1.409468994E0,1.217235275E1
1.331443921E1,-1.158905045E1,-3.326981506E0,1.339115295E0,1.213128707E1
1.332446521E1,-1.145986908E1,-3.420237579E0,1.262474670E0,1.202582499E1
1.333449121E1,-1.118593872E1,-3.649261322E0,1.234782257E0,1.183076585E1
1.334451621E1,-1.092383377E1,-3.942800903E0,1.290316772E0,1.168506485E1
1.335454221E1,-1.069286407E1,-4.274062042E0,1.412612457E0,1.160174221E1
1.336456821E1,-1.043300446E1,-4.563410339E0,1.642534332E0,1.150522555E1
1.337459421E1,-1.012494507E1,-4.790637817E0,1.815424805E0,1.134726798E1
1.338462021E1,-9.905800781E0,-4.985083466E0,1.871558075E0,1.124627387E1
1.339464621E1,-9.674831085E0,-5.062322845E0,2.088756409E0,1.111721064E1
1.340467221E1,-9.468260651E0,-5.040917358E0,2.222578125E0,1.095439004E1
1.341469821E1,-9.275461578E0,-4.996310120E0,2.220482483E0,1.076697937E1
1.342472421E1,-9.110953674E0,-4.919669495E0,2.178569641E0,1.058105810E1
1.343475021E1,-8.945847015E0,-4.765190735E0,2.141895905E0,1.035967855E1
1.344477621E1,-8.768765259E0,-4.535119171E0,2.014061737E0,1.007546499E1
1.345480221E1,-8.691076813E0,-4.307592316E0,1.866318970E0,9.877920541E0
1.346482821E1,-8.551117859E0,-4.089346161E0,1.781146088E0,9.644524356E0
1.347485371E1,-8.346942444E0,-3.904929657E0,1.651515656E0,9.362020495E0
1.348487971E1,-8.218808899E0,-3.792962494E0,1.666334839E0,9.203915253E0
1.349490471E1,-8.125702515E0,-3.753893738E0,1.741328888E0,9.118716239E0
1.350493071E1,-8.034392395E0,-3.779041443E0,1.820514221E0,9.063492010E0
1.351495671E1,-7.954757996E0,-3.857178955E0,1.922003174E0,9.047104535E0
1.352498271E1,-7.884553986E0,-3.927682343E0,2.013612671E0,9.035901511E0
1.353500871E1,-7.805218964E0,-4.011807404E0,2.068249054E0,9.016301673E0
1.354503471E1,-7.555388489E0,-4.092489624E0,2.115251312E0,8.849104737E0
1.355506071E1,-7.298372955E0,-4.189487915E0,2.105970612E0,8.674858443E0
1.356508671E1,-7.106022949E0,-4.227059784E0,1.994751892E0,8.505447177E0
1.357511271E1,-6.871460724E0,-4.205205231E0,1.939816132E0,8.286350834E0
1.358513871E1,-6.591542816E0,-4.128863983E0,1.882185974E0,8.002410795E0
1.359516471E1,-6.357729034E0,-3.970643005E0,1.864672394E0,7.724229896E0
1.360519071E1,-6.226901093E0,-3.854484558E0,1.789977722E0,7.538923575E0
1.361521671E1,-6.218518524E0,-3.809727631E0,1.610500946E0,7.468447667E0
1.362524271E1,-6.227050781E0,-3.799399109E0,1.413959656E0,7.430402205E0
1.363526771E1,-6.265969849E0,-3.795507202E0,1.309776306E0,7.442027079E0
1.364529371E1,-6.292165375E0,-3.834276581E0,1.259031830E0,7.475171112E0
1.365531971E1,-6.308182068E0,-3.890559540E0,1.213227081E0,7.510095504E0
1.366534571E1,-6.389163666E0,-4.004173279E0,1.143621826E0,7.626446543E0
1.367537171E1,-6.442602539E0,-4.079466705E0,1.180445251E0,7.716386918E0
1.368539771E1,-6.410120087E0,-4.101920013E0,1.186732178E0,7.702189337E0
1.369542371E1,-6.427483978E0,-4.155957642E0,1.123413849E0,7.736057968E0
1.370544971E1,-6.533014526E0,-4.262386322E0,1.013242950E0,7.866058558E0
1.371547571E1,-6.777605896E0,-4.338278503E0,9.882449341E-1,8.107603228E0
1.372550171E1,-7.264243927E0,-4.448000336E0,9.957293701E-1,8.575862860E0
1.373552771E1,-7.918533325E0,-4.561913452E0,1.058448944E0,9.199703176E0
1.374555371E1,-8.281079407E0,-4.530628510E0,1.269060974E0,9.524357542E0
1.375557971E1,-8.308921509E0,-4.431235199E0,1.332229614E0,9.510460440E0
1.376560571E1,-8.371042328E0,-4.391567688E0,1.282233582E0,9.539619456E0
1.377563071E1,-8.453371124E0,-4.423451385E0,1.304237823E0,9.629508909E0
1.378565671E1,-8.658145294E0,-4.513863373E0,1.382824402E0,9.861574205E0
1.379568271E1,-8.924591217E0,-4.772076416E0,1.515897675E0,1.023322957E1
1.380570871E1,-9.023086395E0,-5.118605804E0,1.525028687E0,1.048531955E1
1.381573471E1,-9.104217682E0,-5.465284882E0,1.535955963E0,1.072917887E1
1.382576071E1,-9.217831421E0,-5.796845398E0,1.574875031E0,1.100236629E1
1.383578671E1,-9.322164459E0,-6.049969025E0,1.596280518E0,1.122733214E1
1.384581271E1,-9.464069366E0,-6.260431366E0,1.548080750E0,1.145243048E1
1.385583871E1,-9.644144897E0,-6.391408997E0,1.539698181E0,1.167177408E1
1.386586471E1,-9.807754669E0,-6.339766388E0,1.495090942E0,1.177369893E1
1.387589071E1,-9.875863037E0,-6.130800934E0,1.512754211E0,1.172210801E1
1.388591671E1,-9.842931519E0,-5.770649872E0,1.618284760E0,1.152399872E1
1.389594271E1,-9.688003693E0,-5.237009583E0,1.762434998E0,1.115302031E1
1.390596871E1,-9.521998901E0,-4.669839020E0,1.722019043E0,1.074435708E1
1.391599371E1,-9.498048706E0,-4.168082428E0,1.626367950E0,1.049909106E1
1.392601971E1,-9.614805908E0,-3.774101715E0,1.614542542E0,1.045442892E1
1.393604571E1,-9.731712799E0,-3.397634583E0,1.674717407E0,1.044293221E1
1.394607171E1,-9.916877747E0,-3.149899750E0,1.712738342E0,1.054513183E1
1.395609771E1,-1.005324417E1,-3.079246674E0,1.711091766E0,1.065257309E1
1.396612371E1,-1.004965164E1,-3.048560486E0,1.664688263E0,1.063298670E1
1.397614971E1,-1.004037094E1,-3.089724884E0,1.406026154E0,1.059869605E1
1.398617571E1,-1.018107834E1,-3.234174500E0,1.116977234E0,1.074066474E1
1.399620171E1,-1.031579819E1,-3.354973297E0,9.289682007E-1,1.088735597E1
1.400622771E1,-1.029379395E1,-3.402424622E0,7.222480774E-1,1.086555702E1
1.401625371E1,-1.016446289E1,-3.459905090E0,4.936734009E-1,1.074853304E1
1.402627971E1,-1.000459534E1,-3.536396027E0,3.441343689E-1,1.061680052E1
1.403630571E1,-9.944719849E0,-3.607797546E0,2.875520325E-1,1.058283243E1
1.404633171E1,-9.845925293E0,-3.652704163E0,3.168910217E-1,1.050642244E1
1.405635671E1,-9.661059723E0,-3.652853851E0,4.119433594E-1,1.033678449E1
1.406638271E1,-9.442214813E0,-3.648961945E0,6.851252747E-1,1.014592236E1
1.407640871E1,-9.078620911E0,-3.646866302E0,1.092278595E0,9.844494096E0
1.408643471E1,-8.720565491E0,-3.651506653E0,1.392703857E0,9.556222441E0
1.409646071E1,-8.405770111E0,-3.679348755E0,1.653012543E0,9.323466570E0
1.410648671E1,-8.074209595E0,-3.688180389E0,1.934726715E0,9.085081322E0
1.411651271E1,-7.866741028E0,-3.650758209E0,2.070195007E0,8.916241207E0
1.412653871E1,-7.732919312E0,-3.583248596E0,2.074535980E0,8.771625340E0
1.413656471E1,-7.703730011E0,-3.517235870E0,2.030527496E0,8.708699453E0
1.414659071E1,-7.818541260E0,-3.409909058E0,1.959425354E0,8.751937781E0
1.415661671E1,-7.971672821E0,-3.349434814E0,1.743873596E0,8.820848954E0
1.416664271E1,-8.223299561E0,-3.361858978E0,1.420995026E0,8.996887146E0
1.417666871E1,-8.467890930E0,-3.448079681E0,1.048419800E0,9.202913363E0
1.418669471E1,-8.655899963E0,-3.505111084E0,9.255253601E-1,9.384402223E0
1.419671971E1,-8.735534363E0,-3.478017426E0,9.198371887E-1,9.447341757E0
1.420674571E1,-8.736881561E0,-3.452121277E0,9.168434143E-1,9.438794551E0
1.421677171E1,-8.740025024E0,-3.439547424E0,9.907896423E-1,9.444585117E0
1.422679771E1,-8.781638489E0,-3.446433105E0,1.003363495E0,9.486928586E0
1.423682371E1,-8.844807129E0,-3.414998474E0,1.057101746E0,9.539931437E0
1.424684971E1,-8.876092072E0,-3.376977539E0,1.030756531E0,9.552562315E0
1.425687571E1,-8.909173279E0,-3.302432556E0,9.981243896E-1,9.553830729E0
1.426690171E1,-8.914562073E0,-3.190465393E0,9.804611206E-1,9.518917501E0
1.427692771E1,-8.831484833E0,-3.081042938E0,9.219328308E-1,9.398824931E0
1.428695371E1,-8.768016815E0,-2.996768188E0,8.147557068E-1,9.301750658E0
1.429697971E1,-8.818910980E0,-2.962190094E0,6.881190491E-1,9.328519114E0
1.430700571E1,-8.905281372E0,-2.959495697E0,6.050418091E-1,9.403654964E0
1.431703171E1,-9.064999237E0,-3.017425232E0,6.060896301E-1,9.573213193E0
1.432705671E1,-9.142238617E0,-3.145858154E0,5.301974487E-1,9.682874562E0
1.433708271E1,-9.241931305E0,-3.318299561E0,5.038522339E-1,9.832511037E0
1.434710871E1,-9.322014771E0,-3.482957153E0,4.957690430E-1,9.963771217E0
1.435713471E1,-9.470356293E0,-3.662733307E0,4.706213379E-1,1.016487816E1
1.436716071E1,-9.689500580E0,-3.825894012E0,4.779560852E-1,1.042843845E1
1.437718671E1,-9.879605255E0,-4.009262695E0,3.746708679E-1,1.066870028E1
1.438721271E1,-1.007105713E1,-4.171076202E0,3.745211792E-1,1.090707727E1
1.439723871E1,-1.022718246E1,-4.321363678E0,4.330494690E-1,1.111111952E1
1.440726471E1,-1.041908340E1,-4.426744537E0,5.053491211E-1,1.133175820E1
1.441729071E1,-1.055170761E1,-4.517455902E0,6.095324707E-1,1.149423643E1
1.442731671E1,-1.060574524E1,-4.558021545E0,7.843688965E-1,1.157033392E1
1.443734271E1,-1.059257263E1,-4.553680573E0,9.126521301E-1,1.156596454E1
1.444736871E1,-1.052865555E1,-4.583318939E0,1.146914978E0,1.154013926E1
1.445739371E1,-1.047177383E1,-4.670288086E0,1.314416656E0,1.154111473E1
1.446741971E1,-1.044976959E1,-4.869374084E0,1.437460785E0,1.161786478E1
1.447744583E1,-1.042267593E1,-5.129233704E0,1.565744019E0,1.172146605E1
1.448747183E1,-1.037492523E1,-5.331762543E0,1.660197601E0,1.178231817E1
1.449749783E1,-1.037028488E1,-5.487139435E0,1.813179474E0,1.187177862E1
1.450752383E1,-1.042956161E1,-5.667813721E0,1.841919708E0,1.201218282E1
1.451754983E1,-1.054991135E1,-5.810467072E0,1.918260956E0,1.219597811E1
1.452757583E1,-1.072265213E1,-5.866001587E0,2.009870453E0,1.238647741E1
1.453760183E1,-1.088491470E1,-5.826932831E0,1.971999207E0,1.250293146E1
1.454762783E1,-1.105810455E1,-5.665718079E0,1.859732666E0,1.256346462E1
1.455765383E1,-1.115809662E1,-5.371280365E0,1.734143829E0,1.250444032E1
1.456767983E1,-1.116333572E1,-4.949008484E0,1.653760986E0,1.232264886E1
1.457770583E1,-1.110226273E1,-4.573140106E0,1.504671021E0,1.210115213E1
1.458773083E1,-1.099149307E1,-4.333488464E0,1.266366577E0,1.188258080E1
1.459775683E1,-1.085108505E1,-4.207300873E0,1.045126648E0,1.168502106E1
1.460778283E1,-1.062490540E1,-4.164789276E0,1.003962250E0,1.145609116E1
1.461780883E1,-1.036818924E1,-4.239034882E0,1.061293030E0,1.125144914E1
1.462783483E1,-1.016895355E1,-4.458478546E0,1.201701050E0,1.116824663E1
1.463786083E1,-9.988279266E0,-4.680616608E0,1.476828918E0,1.112901245E1
1.464788683E1,-9.793384552E0,-4.878205719E0,1.830243988E0,1.109310890E1
1.465791283E1,-9.548643494E0,-5.061125336E0,2.118993530E0,1.101279782E1
1.466793883E1,-9.336085510E0,-5.185217285E0,2.353855133E0,1.093570322E1
1.467796483E1,-9.206754456E0,-5.197491760E0,2.562072144E0,1.087853216E1
1.468799083E1,-9.223220215E0,-5.110073547E0,2.716101837E0,1.088842743E1
1.469801683E1,-9.223519592E0,-4.965174866E0,2.757565613E0,1.083191780E1
1.470804283E1,-9.204958191E0,-4.803511047E0,2.642305298E0,1.071385789E1
1.471806783E1,-9.182504883E0,-4.661007385E0,2.497107239E0,1.059617527E1
1.472809383E1,-9.069340210E0,-4.552632751E0,2.375110931E0,1.042211825E1
1.473811983E1,-8.899593201E0,-4.455035706E0,2.279759216E0,1.021016182E1
1.474814583E1,-8.668922882E0,-4.407584381E0,2.256258087E0,9.983372405E0
1.475817183E1,-8.394393768E0,-4.357139282E0,2.248923340E0,9.721531034E0
1.476819783E1,-8.057145081E0,-4.293671265E0,2.261197815E0,9.405648055E0
1.477822383E1,-7.689958649E0,-4.225862274E0,2.304757233E0,9.072225850E0
1.478824983E1,-7.379055176E0,-4.182153168E0,2.326462097E0,8.795071705E0
1.479827583E1,-7.156468048E0,-4.143683167E0,2.290985870E0,8.581011675E0
1.480830183E1,-7.059918823E0,-4.100273438E0,2.257156219E0,8.470504722E0
1.481832783E1,-6.943161621E0,-4.048630829E0,2.330204315E0,8.368318650E0
1.482835383E1,-6.765181732E0,-4.002676392E0,2.382894745E0,8.213847426E0
1.483837983E1,-6.719975739E0,-3.947740631E0,2.375859375E0,8.147848660E0
1.484840483E1,-6.649472351E0,-3.937262421E0,2.431693268E0,8.101274595E0
1.485843083E1,-6.541995850E0,-3.899540863E0,2.421813812E0,7.991827750E0
1.486845683E1,-6.389013977E0,-3.755390625E0,2.427801361E0,7.798504844E0
1.487848283E1,-6.160439301E0,-3.560346222E0,2.481689301E0,7.535639281E0
1.488850883E1,-5.954467621E0,-3.350183258E0,2.397115173E0,7.240550647E0
1.489853483E1,-5.901178436E0,-3.144510956E0,2.371069336E0,7.094633598E0
1.490856083E1,-5.857169952E0,-2.914888458E0,2.312690735E0,6.939132007E0
1.491858683E1,-5.791157227E0,-2.697241058E0,2.216291199E0,6.761993643E0
1.492861283E1,-5.949527893E0,-2.680924988E0,2.014810181E0,6.829619389E0
1.493863883E1,-6.137087860E0,-2.815345459E0,1.769320679E0,6.980008103E0
1.494866483E1,-6.376889191E0,-3.003504181E0,1.484612732E0,7.203459452E0
1.495869083E1,-6.540498962E0,-3.203638000E0,1.274898834E0,7.393699355E0
1.496871583E1,-6.554869080E0,-3.328927460E0,1.034648438E0,7.424187772E0
1.497874183E1,-6.600973206E0,-3.403921509E0,7.623646545E-1,7.465971388E0
1.498876783E1,-6.657705231E0,-3.409609680E0,6.021977234E-1,7.504206767E0
1.499879383E1,-6.751410370E0,-3.365451508E0,4.772076416E-1,7.558804996E0
1.500881983E1,-6.993906097E0,-3.373684387E0,4.421804810E-1,7.777659829E0
1.501884583E1,-7.343279572E0,-3.418141937E0,3.342549133E-1,8.106736428E0
1.502887183E1,-7.833061066E0,-3.496878204E0,1.788780212E-1,8.580034976E0
1.503889783E1,-8.273145905E0,-3.575614471E0,7.289840698E-2,9.013061421E0
1.504892383E1,-8.580456848E0,-3.615880737E0,8.217910767E-2,9.311583466E0
1.505894983E1,-8.710835724E0,-3.622317352E0,2.257305908E-1,9.436672947E0
1.506897583E1,-8.702602844E0,-3.648363190E0,3.857478333E-1,9.444292013E0
1.507900183E1,-8.652457123E0,-3.745511169E0,5.336402893E-1,9.443444294E0
1.508902783E1,-8.609646149E0,-3.894900513E0,6.818321228E-1,9.474236215E0
1.509905283E1,-8.556955719E0,-4.038901062E0,7.902067566E-1,9.495190345E0
1.510907883E1,-8.585246887E0,-4.157304840E0,9.508227539E-1,9.586120777E0
1.511910483E1,-8.624315643E0,-4.252357178E0,1.189725952E0,9.689004579E0
1.512913083E1,-8.754245453E0,-4.409979401E0,1.283131714E0,9.885907078E0
1.513915683E1,-8.962462463E0,-4.610412598E0,1.268013153E0,1.015822303E1
1.514918283E1,-9.219777374E0,-4.781357117E0,1.198108521E0,1.045471830E1
1.515920883E1,-9.396559753E0,-4.891528015E0,1.102158051E0,1.065068701E1
1.516923483E1,-9.595346375E0,-5.039570160E0,1.039887543E0,1.088803497E1
1.517926083E1,-9.812245331E0,-5.304369507E0,1.106948090E0,1.120900657E1
1.518928683E1,-1.007345215E1,-5.641767883E0,1.238075409E0,1.161192550E1
1.519931283E1,-1.037238052E1,-6.027964783E0,1.365759888E0,1.207426756E1
1.520933883E1,-1.060664337E1,-6.353837128E0,1.597178650E0,1.246688050E1
1.521936383E1,-1.066187851E1,-6.444548492E0,1.847907257E0,1.259454723E1
1.522938983E1,-1.059915894E1,-6.222260742E0,2.068847809E0,1.246349992E1
1.523941583E1,-1.054212753E1,-5.741011505E0,2.363285522E0,1.223440985E1
1.524944183E1,-1.041833496E1,-5.069657593E0,2.429747314E0,1.183836152E1
1.525946783E1,-1.030816406E1,-4.357738037E0,2.330503693E0,1.143150798E1
1.526949383E1,-1.020877075E1,-3.684138794E0,2.192041626E0,1.107234959E1
1.527951983E1,-1.023721161E1,-3.211571503E0,1.983525238E0,1.091096079E1
1.528954583E1,-1.031085846E1,-2.901117096E0,1.882036285E0,1.087530888E1
1.529957183E1,-1.024903702E1,-2.698588257E0,1.822759552E0,1.075395698E1
1.530959783E1,-1.020278320E1,-2.642155609E0,1.833537140E0,1.069764599E1
1.531962383E1,-1.020203476E1,-2.735860748E0,1.836231537E0,1.072092317E1
1.532964983E1,-1.021790176E1,-2.910846863E0,1.803898773E0,1.077648350E1
1.533967483E1,-1.033615585E1,-3.124901733E0,1.758992157E0,1.094052933E1
1.534970083E1,-1.054212753E1,-3.430865479E0,1.667981415E0,1.121113076E1
1.535972683E1,-1.068582870E1,-3.679348755E0,1.489402771E0,1.139924835E1
1.536975283E1,-1.079884369E1,-3.902834015E0,1.237476654E0,1.154896042E1
1.537977883E1,-1.081126785E1,-4.100722504E0,1.035247192E0,1.160909878E1
1.538980483E1,-1.082563797E1,-4.216282196E0,9.636959839E-1,1.165762338E1
1.539983083E1,-1.074390793E1,-4.294120331E0,9.271719360E-1,1.160735434E1
1.540985683E1,-1.053539154E1,-4.315376129E0,9.690847778E-1,1.142611357E1
1.541988283E1,-1.018197647E1,-4.209097137E0,1.168170776E0,1.107942988E1
1.542990883E1,-9.769733734E0,-4.032314758E0,1.427731018E0,1.066516176E1
1.543993483E1,-9.402696991E0,-3.875440979E0,1.627565460E0,1.029945255E1
1.544996083E1,-9.076225891E0,-3.738924866E0,1.802401886E0,9.980284973E0
1.545998583E1,-8.747509460E0,-3.645668793E0,1.916614380E0,9.668672783E0
1.547001183E1,-8.439749451E0,-3.588637390E0,2.043849792E0,9.396010381E0
1.548003858E1,-8.266409912E0,-3.544778595E0,2.079475708E0,9.231641639E0
1.549006458E1,-8.201295319E0,-3.581302643E0,2.097737732E0,9.191706975E0
1.550009058E1,-8.098459167E0,-3.631747742E0,1.984872437E0,9.094743049E0
1.551011658E1,-8.083789673E0,-3.658991089E0,1.725910950E0,9.039615029E0
1.552014258E1,-8.133636017E0,-3.651057587E0,1.496737518E0,9.040269883E0
1.553016858E1,-8.114625549E0,-3.637884979E0,1.206790466E0,8.974279813E0
1.554019458E1,-8.189170532E0,-3.637136536E0,8.933422852E-1,9.004961778E0
1.555022058E1,-8.265362091E0,-3.639381866E0,6.676116943E-1,9.055772537E0
1.556024658E1,-8.256680145E0,-3.651806030E0,5.590873718E-1,9.045497941E0
1.557027258E1,-8.210725708E0,-3.670217743E0,4.831951904E-1,9.006663784E0
1.558029758E1,-8.162675629E0,-3.679648132E0,4.963677979E-1,8.967467022E0
1.559032358E1,-8.124654694E0,-3.646566925E0,6.146218872E-1,8.926658070E0
1.560034958E1,-8.131540375E0,-3.594774628E0,6.228547668E-1,8.912480101E0
1.561037558E1,-8.143216095E0,-3.572620697E0,6.276448059E-1,8.914568134E0
1.562040158E1,-8.157735901E0,-3.530558167E0,5.863307190E-1,8.908270298E0
1.563042758E1,-8.194709015E0,-3.470832367E0,4.884342957E-1,8.912827902E0
1.564045358E1,-8.195906525E0,-3.418591003E0,4.228706360E-1,8.890358136E0
1.565047958E1,-8.226293335E0,-3.438050537E0,3.158432007E-1,8.921426481E0
1.566050558E1,-8.258177032E0,-3.522325287E0,2.136058044E-1,8.980528424E0
1.567053158E1,-8.271948395E0,-3.587439880E0,1.983375549E-1,9.018547163E0
1.568055758E1,-8.367000732E0,-3.674409027E0,1.519340515E-1,9.139533189E0
1.569058358E1,-8.559500427E0,-3.785927124E0,1.163081360E-1,9.360118553E0
1.570060858E1,-8.764124908E0,-3.870650940E0,2.122586060E-1,9.583155943E0
1.571063458E1,-8.931177521E0,-3.852089539E0,3.447331238E-1,9.732593007E0
1.572066058E1,-9.132209473E0,-3.851939850E0,4.120930481E-1,9.919904795E0
1.573068658E1,-9.334888000E0,-3.867357788E0,5.457650757E-1,1.011901427E1
1.574071258E1,-9.432035980E0,-3.836970978E0,6.738986206E-1,1.020489041E1
1.575073858E1,-9.436676331E0,-3.788771210E0,7.557783508E-1,1.019690386E1
1.576076458E1,-9.373507690E0,-3.735781403E0,7.482939148E-1,1.011823368E1
1.577079058E1,-9.305099945E0,-3.680546265E0,8.595126343E-1,1.004340917E1
1.578081658E1,-9.164242859E0,-3.647465057E0,1.060843964E0,9.920319473E0
1.579084258E1,-9.028475189E0,-3.641627197E0,1.208586731E0,9.809969152E0
1.580086858E1,-8.914711761E0,-3.721860352E0,1.303788757E0,9.748035463E0
1.581089458E1,-8.825796661E0,-3.789819031E0,1.431173859E0,9.711110833E0
1.582091958E1,-8.773555298E0,-3.836521912E0,1.635648651E0,9.714397534E0
1.583094558E1,-8.721613312E0,-3.842808838E0,1.829645233E0,9.704706085E0
1.584097158E1,-8.737031250E0,-3.917204132E0,1.808090057E0,9.744197911E0
1.585099758E1,-8.862021332E0,-4.102967834E0,1.771865387E0,9.925183831E0
1.586102358E1,-9.022936707E0,-4.333638153E0,1.760638733E0,1.016334862E1
1.587104958E1,-9.260193329E0,-4.648882599E0,1.729353790E0,1.050494904E1
1.588107558E1,-9.610464935E0,-5.097799072E0,1.767674103E0,1.102149098E1
1.589110158E1,-9.915680237E0,-5.498366089E0,1.917512512E0,1.149911294E1
1.590112758E1,-1.012584320E1,-5.808221741E0,2.038610687E0,1.185006641E1
1.591115358E1,-1.028511200E1,-6.007158051E0,2.118095398E0,1.209776032E1
1.592117958E1,-1.044423111E1,-6.029012604E0,2.268682251E0,1.227101771E1
1.593120458E1,-1.061218185E1,-5.838309174E0,2.467618561E0,1.236096271E1
1.594123058E1,-1.086126389E1,-5.485642548E0,2.507136383E0,1.242356874E1
1.595125658E1,-1.106424179E1,-5.012476501E0,2.550995178E0,1.241168576E1
1.596128258E1,-1.107666595E1,-4.475992126E0,2.486479340E0,1.220285269E1
1.597130858E1,-1.100930603E1,-4.012406158E0,2.206262054E0,1.192358229E1
1.598133458E1,-1.110271179E1,-3.714675293E0,2.046843567E0,1.188522571E1
1.599136058E1,-1.112007568E1,-3.490591278E0,2.099683685E0,1.184267631E1
1.600138658E1,-1.091365494E1,-3.343147888E0,2.314037933E0,1.164642750E1
1.601141258E1,-1.057446030E1,-3.329077148E0,2.500101013E0,1.136452684E1
1.602143858E1,-1.022808060E1,-3.459605713E0,2.649340668E0,1.111762161E1
1.603146458E1,-9.779762878E0,-3.606749725E0,2.650687866E0,1.075539640E1
1.604149058E1,-9.369316406E0,-3.753594360E0,2.458188171E0,1.038827462E1
1.605151558E1,-9.134454803E0,-3.890858917E0,2.276765442E0,1.018630004E1
1.606154158E1,-9.036109314E0,-3.974834290E0,2.186353455E0,1.011092086E1
1.607156758E1,-9.015152893E0,-4.106859741E0,2.008074188E0,1.010799884E1
1.608159358E1,-9.138496399E0,-4.327351227E0,1.819616089E0,1.027370857E1
1.609161958E1,-9.358239441E0,-4.560266876E0,1.682351532E0,1.054528265E1
1.610164558E1,-9.424102478E0,-4.715793457E0,1.489253082E0,1.064285160E1
1.611167158E1,-9.385183411E0,-4.879103851E0,1.292711792E0,1.065637958E1
1.612169758E1,-9.344917145E0,-5.031486969E0,1.113384705E0,1.067159609E1
1.613172358E1,-9.312584381E0,-5.085973663E0,9.672885132E-1,1.065490512E1
1.614174958E1,-9.186995544E0,-4.981790314E0,9.262738037E-1,1.049176368E1
1.615177558E1,-8.990005188E0,-4.797972565E0,9.008267212E-1,1.022996690E1
1.616180058E1,-8.839867401E0,-4.567302246E0,9.472302246E-1,9.995036297E0
1.617182658E1,-8.692873077E0,-4.283193054E0,1.094074860E0,9.752373295E0
1.618185258E1,-8.600066071E0,-4.098477173E0,1.296154633E0,9.614503023E0
1.619187858E1,-8.871302032E0,-4.261787567E0,1.502126312E0,9.955863422E0
1.620190458E1,-9.045839081E0,-4.649181976E0,1.632954254E0,1.030090468E1
1.621193058E1,-8.767567749E0,-4.710404663E0,1.606758728E0,1.008165809E1
1.622195658E1,-8.305778046E0,-4.635260925E0,1.578168182E0,9.641691117E0
1.623198258E1,-7.864645386E0,-4.649631042E0,1.573976898E0,9.270874778E0
1.624200858E1,-7.586224365E0,-4.658612366E0,1.508862305E0,9.029403898E0
1.625203458E1,-7.431595917E0,-4.629872131E0,1.470991058E0,8.878521753E0
1.626206058E1,-7.318431244E0,-4.575385437E0,1.471440125E0,8.755496777E0
1.627208558E1,-7.213499451E0,-4.610262909E0,1.506018219E0,8.692363849E0
1.628211158E1,-7.120842133E0,-4.691244507E0,1.328637085E0,8.630147403E0
1.629213758E1,-7.096143494E0,-4.831802216E0,1.242117004E0,8.674354142E0
1.630216358E1,-7.113507385E0,-5.024451599E0,1.303339691E0,8.806009059E0
1.631218958E1,-7.181765442E0,-5.187911682E0,1.304836578E0,8.955153878E0
1.632221558E1,-7.252867584E0,-5.318140869E0,1.453477478E0,9.110395561E0
1.633224158E1,-7.317383423E0,-5.383554840E0,1.629661102E0,9.229439754E0
1.634226758E1,-7.400760040E0,-5.414540405E0,1.726509705E0,9.331094938E0
1.635229358E1,-7.461982727E0,-5.414540405E0,1.806892548E0,9.394854693E0
1.636231958E1,-7.422913971E0,-5.355113983E0,1.820813599E0,9.332323385E0
1.637234558E1,-7.397017822E0,-5.300477600E0,1.779499512E0,9.272408207E0
1.638237158E1,-7.329059143E0,-5.263953552E0,1.700912933E0,9.182451728E0
1.639239658E1,-7.221732330E0,-5.282365265E0,1.559157715E0,9.082277986E0
1.640242258E1,-7.138355713E0,-5.273683319E0,1.539847870E0,9.007718329E0
1.641244858E1,-7.012018433E0,-5.225782928E0,1.624272308E0,8.894687754E0
1.642247458E1,-6.907835083E0,-5.218448181E0,1.660047913E0,8.815108963E0
1.643250058E1,-6.831793213E0,-5.218597870E0,1.733694763E0,8.769997706E0
1.644252658E1,-6.765780487E0,-5.195246429E0,1.838626556E0,8.726220183E0
1.645255258E1,-6.718927917E0,-5.187312927E0,1.953737183E0,8.710298315E0
1.646257858E1,-6.709497528E0,-5.148693237E0,2.022144928E0,8.695715568E0
1.647260458E1,-6.793023834E0,-5.083428955E0,2.056872711E0,8.730243302E0
1.648263046E1,-6.918612671E0,-5.015470276E0,2.065554657E0,8.791396898E0
1.649265646E1,-7.038962402E0,-4.900659027E0,2.037263489E0,8.815548373E0
1.650268146E1,-7.195686493E0,-4.750521240E0,2.013612671E0,8.854377005E0
1.651270746E1,-7.328610077E0,-4.675676880E0,1.953886871E0,8.910003022E0
1.652273346E1,-7.456144867E0,-4.628824310E0,1.768422546E0,8.952509652E0
1.653275946E1,-7.713908844E0,-4.647834778E0,1.602268066E0,9.147350476E0
1.654278546E1,-8.070467377E0,-4.842579803E0,1.487307129E0,9.528646563E0
1.655281146E1,-8.571176147E0,-5.289849701E0,1.245260468E0,1.014880505E1
1.656283746E1,-9.047785034E0,-5.879174194E0,1.056952057E0,1.084178264E1
