"Time (s)","Acceleration x (m/s^2)","Acceleration y (m/s^2)","Acceleration z (m/s^2)","Absolute acceleration (m/s^2)"

1.266883562E1,1.747765503E0,-8.980574799E0,1.464404755E0,9.265521532E0
1.267875662E1,2.127226410E0,-8.390052795E0,1.485361176E0,8.782048504E0
1.268867662E1,2.621648254E0,-8.005652161E0,1.606908417E0,8.575876675E0
1.269859762E1,2.068398743E0,-7.692503357E0,1.736089783E0,8.152722796E0
1.270851863E1,1.379531250E0,-7.530091095E0,1.808239746E0,7.866073312E0
1.271843962E1,1.299747162E0,-7.454647980E0,1.940564575E0,7.811972226E0
1.272836062E1,1.442849579E0,-7.284751282E0,2.073188782E0,7.710222297E0
1.273828062E1,9.249266052E-1,-7.024143219E0,1.986069946E0,7.357890392E0
1.274820162E1,6.905140686E-1,-6.609655151E0,2.021546173E0,6.946293964E0
1.275812262E1,1.526226196E0,-6.262377319E0,2.159858551E0,6.797920642E0
1.276804362E1,1.493144989E0,-5.875431976E0,2.148931274E0,6.431802896E0
1.277796362E1,8.385562134E-1,-5.377866669E0,2.297871552E0,5.908031829E0
1.278788462E1,-1.487905884E-1,-4.952601013E0,2.133064270E0,5.394474823E0
1.279780562E1,1.061293030E0,-4.533023529E0,1.583407288E0,4.917501789E0
1.280772663E1,1.940714264E0,-4.441264343E0,8.214916992E-1,4.915897622E0
1.281764762E1,1.801952820E0,-5.019511871E0,4.320016479E-1,5.350622283E0
1.282756762E1,2.051034851E0,-6.131699066E0,5.519023132E-1,6.489150450E0
1.283748862E1,2.619103546E0,-7.155120850E0,1.236877899E0,7.719153107E0
1.284740962E1,2.243983612E0,-8.248896332E0,2.713407440E0,8.968964995E0
1.285733062E1,1.900298309E0,-8.858877869E0,4.218677216E0,9.994402844E0
1.286725162E1,2.154469757E0,-8.716374207E0,3.989054718E0,9.824941567E0
1.287717162E1,2.389630737E0,-8.308173065E0,2.854863281E0,9.104192391E0
1.288709262E1,2.534529419E0,-7.873926086E0,2.107168121E0,8.535965609E0
1.289701362E1,3.017125854E0,-7.853418732E0,2.803819427E0,8.867955660E0
1.290693463E1,3.109783173E0,-8.619974670E0,3.731290741E0,9.894303679E0
1.291685562E1,2.808010712E0,-1.032837204E1,3.765868835E0,1.134645148E1
1.292677562E1,2.312990112E0,-1.240605148E1,4.612657928E0,1.343639274E1
1.293669662E1,1.974843292E0,-1.438493637E1,5.518424377E0,1.553317122E1
1.294661762E1,2.571203156E0,-1.647788406E1,6.017935638E0,1.772984203E1
1.295653862E1,3.121009827E0,-1.844718887E1,6.268065491E0,1.973139946E1
1.296645962E1,3.349434814E0,-2.055929672E1,6.573131104E0,2.184283516E1
1.297637962E1,3.313060455E0,-2.218341934E1,7.075785828E0,2.351908179E1
1.298630062E1,3.726051636E0,-2.430256256E1,7.122638397E0,2.559746053E1
1.299622162E1,3.990850983E0,-2.522883636E1,7.132517853E0,2.651968866E1
1.300614263E1,4.193679199E0,-2.544184341E1,7.471712494E0,2.684587173E1
1.301606262E1,4.176165619E0,-2.412263672E1,7.073390808E0,2.548283381E1
1.302598362E1,3.634741516E0,-2.156310928E1,6.154451752E0,2.271687268E1
1.303590508E1,3.063229980E0,-1.914174454E1,5.267845459E0,2.008830400E1
1.304582608E1,3.015030212E0,-1.684791458E1,4.107757874E0,1.760159958E1
1.305574708E1,2.766097870E0,-1.448687439E1,3.084934845E0,1.506776858E1
1.306566708E1,2.121987305E0,-1.190594147E1,2.024090881E0,1.226177867E1
1.307558808E1,1.523531799E0,-9.307494965E0,1.317560120E0,9.522949980E0
1.308550908E1,1.204844513E0,-6.889123993E0,1.084943848E0,7.077342923E0
1.309543008E1,1.166673889E0,-4.630021820E0,1.423988800E0,4.982567021E0
1.310535108E1,1.132395172E0,-2.430645447E0,2.211800537E0,3.475977234E0
1.311527108E1,2.570155334E-1,-7.909552002E-1,2.615361328E0,2.744409224E0
1.312519208E1,-9.021739197E-1,3.592529297E-1,2.467468872E0,2.651675524E0
1.313511308E1,-1.286574554E0,1.481469269E0,1.831740875E0,2.684268972E0
1.314503408E1,-1.098116455E0,2.352807312E0,1.732197876E0,3.121229161E0
1.315495508E1,-1.204844513E0,2.753524017E0,2.030078430E0,3.626949579E0
1.316487508E1,-1.346599731E0,3.047812042E0,2.375859375E0,4.092333912E0
1.317479608E1,-1.256187744E0,3.552263031E0,3.031645660E0,4.836057868E0
1.318471708E1,-9.093589783E-1,3.995341644E0,3.138224030E0,5.161214844E0
1.319463808E1,-5.939648438E-1,4.092789001E0,2.187700653E0,4.678648330E0
1.320455808E1,5.209167480E-2,3.396437073E0,8.677455139E-1,3.505920793E0
1.321447908E1,5.872288513E-1,8.726852417E-1,-3.817062378E-2,1.052556056E0
1.322440008E1,4.059558105E-1,-9.458830261E-1,-5.632786560E-1,1.173361693E0
1.323432108E1,1.725910950E-1,-1.866768036E0,-8.425978088E-1,2.055378713E0
1.324424208E1,-1.767823792E-1,-2.071542206E0,-1.078956299E0,2.342367566E0
1.325416208E1,-3.703298950E-1,-1.817071381E0,-1.088087311E0,2.150075959E0
1.326408308E1,-5.369334412E-1,-1.408870239E0,-1.017134857E0,1.818729279E0
1.327400408E1,-5.602848816E-1,-1.063538361E0,-9.660910034E-1,1.542194806E0
1.328392508E1,-6.770420837E-1,-8.120613098E-1,-3.207829285E-1,1.104867069E0
1.329384608E1,-7.140151978E-1,-9.238787842E-1,1.233435059E0,1.698449809E0
1.330376608E1,-6.610253906E-1,-1.138382721E0,2.620899811E0,2.932914183E0
1.331368708E1,-7.469467163E-1,-1.364562378E0,3.430715790E0,3.766931206E0
1.332360808E1,-1.609153748E-1,-1.626517639E0,2.541115723E0,3.021377584E0
1.333352908E1,1.861079865E0,-2.273172913E0,2.978805542E-2,2.937996031E0
1.334344908E1,3.578009491E0,-4.681215363E0,1.309925995E0,6.035879000E0
1.335337008E1,5.517376556E0,-7.079528046E0,4.237388306E0,9.925553943E0
1.336329108E1,6.685996399E0,-9.181007996E0,6.230044556E0,1.295403068E1
1.337321208E1,6.028114471E0,-1.244901215E1,8.288563843E0,1.612502273E1
1.338313308E1,4.739294586E0,-1.834270615E1,8.138725433E0,2.061927820E1
1.339305308E1,2.714006195E0,-2.827500183E1,4.815635834E0,2.881027432E1
1.340297408E1,1.518143005E0,-4.035024124E1,7.212900696E0,4.101795537E1
1.341289508E1,1.482217712E0,-5.119908096E1,1.570204742E1,5.357328769E1
1.342281608E1,-8.318202209E-1,-4.879478073E1,1.342827576E1,5.061562151E1
1.343273708E1,-4.529131622E0,-3.157429092E1,6.148613892E0,3.248467844E1
1.344265708E1,-4.912783813E-1,-2.343811020E1,5.684429169E0,2.412258483E1
1.345257808E1,3.788771210E0,-2.176084808E1,7.932005310E0,2.346925659E1
1.346249908E1,4.367318115E0,-2.120415573E1,3.546125793E0,2.193774592E1
1.347242008E1,4.165238342E0,-2.109218857E1,1.592837677E0,2.155844987E1
1.348234108E1,4.840035095E0,-2.053684341E1,2.867886200E0,2.129348840E1
1.349226108E1,6.011948090E0,-1.939890976E1,4.180356903E0,2.073491267E1
1.350218208E1,6.876699829E0,-1.690329941E1,3.800147552E0,1.864005507E1
1.351210308E1,6.566245422E0,-1.383827316E1,2.808160400E0,1.557238414E1
1.352202408E1,5.238506470E0,-1.089928482E1,1.883533173E0,1.223862970E1
1.353194508E1,3.600313110E0,-8.302484894E0,1.637295227E0,9.196425695E0
1.354186508E1,2.063608704E0,-6.235133972E0,1.788181458E0,6.806832557E0
1.355178608E1,3.993695068E-1,-4.740043030E0,1.901495819E0,5.122810779E0
1.356170708E1,-9.301657104E-1,-3.611240387E0,1.765728149E0,4.126022453E0
1.357162808E1,-1.931732941E0,-2.608924713E0,1.738933868E0,3.682658186E0
1.358154808E1,-2.098186798E0,-1.842518463E0,1.671274567E0,3.254292673E0
1.359146908E1,-1.253343658E0,-7.767347717E-1,1.169667664E0,1.882102461E0
1.360139008E1,-9.607022095E-1,3.805087280E-1,5.641767883E-1,1.177298210E0
1.361131108E1,-1.055155792E0,1.865420837E0,3.966751099E-1,2.179564128E0
1.362123208E1,-8.601113892E-1,3.005300446E0,1.536704407E0,3.483257499E0
1.363115208E1,-6.017486572E-1,3.442241821E0,3.229384460E0,4.758156596E0
1.364107308E1,-6.215075684E-1,3.929179230E0,3.675157471E0,5.415856674E0
1.365099408E1,-8.268804932E-1,4.414919128E0,2.901566162E0,5.347366497E0
1.366091508E1,-1.219064941E0,4.682861938E0,1.771865387E0,5.153137124E0
1.367083608E1,-1.678459625E0,4.575984192E0,1.664538574E-1,4.876942170E0
1.368075608E1,-1.972897339E0,3.059487762E0,-9.638456726E-1,3.765871447E0
1.369067708E1,-1.768422546E0,5.637277222E-1,-1.835333405E0,2.610278903E0
1.370059808E1,-1.601968689E0,-9.340576172E-1,-2.294877777E0,2.950462900E0
1.371051908E1,-1.164727936E0,-1.517693939E0,-2.194436646E0,2.911277769E0
1.372044008E1,-8.048762512E-1,-1.460363159E0,-1.817520447E0,2.466549596E0
1.373036008E1,-5.915698242E-1,-1.589095459E0,-1.118923187E0,2.031543338E0
1.374028108E1,-4.203259277E-1,-1.943558350E0,5.239105225E-2,1.989180174E0
1.375020208E1,-9.400451660E-2,-2.667453003E0,1.262923737E0,2.952815392E0
1.376012308E1,4.260140991E-1,-3.302582245E0,1.819466400E0,3.794600833E0
1.377004308E1,1.158291321E0,-3.486250305E0,1.611099701E0,4.011386571E0
1.377996408E1,9.858499146E-1,-2.800526276E0,1.508712616E0,3.330324494E0
1.378988508E1,7.842192078E-1,-1.983375549E0,1.661844177E0,2.703794446E0
1.379980608E1,1.373394012E0,-3.163521423E0,3.657045135E0,5.026734331E0
1.380972708E1,2.875819702E0,-7.035369873E0,6.342610474E0,9.899266429E0
1.381964708E1,5.697751465E0,-1.056398209E1,6.031407623E0,1.343279447E1
1.382956808E1,8.333620148E0,-1.340178085E1,5.025948486E0,1.656252134E1
1.383948908E1,8.521329803E0,-1.894984360E1,5.851481781E0,2.158586280E1
1.384941008E1,5.186115417E0,-2.184227875E1,1.369202728E0,2.249123496E1
1.385933108E1,2.959196320E0,-2.325264587E1,-1.132095795E0,2.346750996E1
1.386925108E1,1.885030060E0,-2.764047134E1,3.261268158E0,2.789596502E1
1.387917208E1,1.170865173E0,-3.279410431E1,1.074465637E1,3.452928964E1
1.388909308E1,8.764274597E-1,-3.635549835E1,1.830438583E1,4.071290860E1
1.389901408E1,-2.609074402E0,-3.632002213E1,1.285481827E1,3.861602814E1
1.390893408E1,-5.514981537E0,-2.801259750E1,4.903802490E-1,2.855452877E1
1.391885508E1,-7.499404907E-1,-2.154739197E1,4.329297180E0,2.199080093E1
1.392877608E1,6.032455444E0,-2.088262436E1,9.999356232E0,2.392617069E1
1.393869708E1,7.756570129E0,-2.076781311E1,4.472549286E0,2.261570558E1
1.394861808E1,5.951623535E0,-2.023087967E1,1.233135681E0,2.112417900E1
1.395853808E1,5.114264832E0,-1.993868729E1,3.141816559E0,2.082253507E1
1.396845908E1,4.933440857E0,-1.951297256E1,5.344037018E0,2.082435278E1
1.397838008E1,5.833818512E0,-1.835408249E1,4.128414917E0,1.969643603E1
1.398830108E1,5.108876038E0,-1.577554459E1,2.479144592E0,1.676647188E1
1.399822208E1,3.045117645E0,-1.292038193E1,1.711840210E0,1.338429705E1
1.400814208E1,9.925859070E-1,-1.020383102E1,1.708547058E0,1.039338864E1
1.401806308E1,-8.952882385E-1,-7.918982391E0,1.412313080E0,8.093605586E0
1.402798408E1,-2.228116608E0,-5.933810577E0,9.231303406E-1,6.405215157E0
1.403790458E1,-2.212848358E0,-4.191882935E0,1.535207520E0,4.982513675E0
1.404782558E1,-2.206711121E0,-2.216590576E0,2.737956390E0,4.156832081E0
1.405774558E1,-2.887645111E0,-5.348377991E-1,3.422632599E0,4.509873575E0
1.406766658E1,-3.489842834E0,1.094972992E0,2.117197266E0,4.226167664E0
1.407758758E1,-3.358116760E0,2.517913971E0,-2.113604736E-1,4.202560195E0
1.408750858E1,-2.252815247E0,2.794538727E0,-1.052611084E0,3.740670171E0
1.409742958E1,-1.293011169E0,2.736010437E0,-7.209008789E-1,3.110840573E0
1.410734958E1,-6.463558960E-1,2.954106903E0,3.755690002E-1,3.047224247E0
1.411727058E1,-3.457809448E-2,3.319197693E0,1.151555328E0,3.513452525E0
1.412719158E1,4.275109863E-1,3.463946686E0,1.177601166E0,3.683535909E0
1.413711258E1,9.047186279E-1,3.447181549E0,1.197060699E0,3.759591832E0
1.414703258E1,1.440604248E0,3.160677338E0,1.235979767E0,3.686850664E0
1.415695358E1,2.072590027E0,2.400258636E0,1.121767273E0,3.363812236E0
1.416687458E1,2.897823944E0,8.108638000E-1,7.854167175E-1,3.109945841E0
1.417679558E1,2.608625336E0,-8.346643066E-1,4.652325439E-1,2.778134620E0
1.418671658E1,6.343807983E-1,-1.620979156E0,4.207749939E-1,1.790827747E0
1.419663658E1,-9.325607300E-1,-1.648222504E0,8.484356689E-1,2.075126507E0
1.420655758E1,-1.749412079E0,-1.474433899E0,9.943821716E-1,2.494633009E0
1.421647858E1,-1.991458740E0,-1.349144440E0,4.963677979E-1,2.456110670E0
1.422639958E1,-2.038760376E0,-1.212478638E0,1.272354126E-1,2.375465674E0
1.423632058E1,-2.080972595E0,-1.090332642E0,2.754272461E-2,2.349474582E0
1.424624058E1,-1.857487335E0,-1.163530426E0,8.415499878E-1,2.347822105E0
1.425616158E1,-6.155200195E-1,-1.340312805E0,2.180216217E0,2.632232145E0
1.426608258E1,1.749262390E0,-2.501148834E0,3.185974731E0,4.412040275E0
1.427600358E1,3.058140564E0,-4.990771637E0,2.772384796E0,6.476584185E0
1.428592458E1,4.291276245E0,-8.022866364E0,4.575086060E0,1.018395056E1
1.429584458E1,6.202501831E0,-1.121602615E1,9.269773407E0,1.581767905E1
1.430576558E1,6.710545349E0,-1.567809723E1,1.073043594E1,2.014885622E1
1.431568658E1,4.249662781E0,-2.057261902E1,7.079977112E0,2.216795802E1
1.432560758E1,1.480870514E0,-2.744482819E1,4.635859680E-1,2.748866100E1
1.433552758E1,1.110690308E-1,-2.948433701E1,1.524878998E0,2.952395165E1
1.434544858E1,-7.252418518E-1,-2.538765610E1,9.157656555E0,2.699855054E1
1.435536958E1,-8.146060181E-1,-2.130295029E1,7.689210205E0,2.266281597E1
1.436529058E1,2.745291138E-1,-2.306149338E1,5.395080872E0,2.368574974E1
1.437521158E1,2.993774414E-3,-2.713497253E1,9.732610931E0,2.882759891E1
1.438513158E1,-7.439529419E-2,-3.111908752E1,1.351479584E1,3.392716978E1
1.439505258E1,-4.808001709E-1,-3.290741867E1,1.073238190E1,3.461666352E1
1.440497358E1,-8.666976929E-1,-2.876433426E1,4.504582672E0,2.912781069E1
1.441489458E1,3.827540588E-1,-2.367731277E1,6.829398193E0,2.464553348E1
1.442481558E1,2.326312408E0,-2.065674408E1,9.525890808E0,2.286603160E1
1.443473558E1,3.830384674E0,-1.983974304E1,6.325995026E0,2.117322516E1
1.444465658E1,4.644541626E0,-1.901929916E1,3.971990204E0,1.997704217E1
1.445457758E1,5.395679626E0,-1.754621246E1,3.971690826E0,1.878183320E1
1.446449858E1,5.664221191E0,-1.611234421E1,3.540437622E0,1.744206800E1
1.447441958E1,4.994962921E0,-1.367316650E1,2.198328552E0,1.472201702E1
1.448433958E1,3.923790436E0,-1.077384567E1,1.059047699E0,1.151492353E1
1.449426058E1,2.278412018E0,-8.274642792E0,5.119354248E-1,8.597845808E0
1.450418158E1,7.705975342E-1,-5.930068359E0,3.649411011E-1,5.991052772E0
1.451410258E1,-1.179547119E-1,-4.005370789E0,7.068301392E-1,4.068970056E0
1.452402358E1,-7.114704895E-1,-2.753374329E0,1.481469269E0,3.206557600E0
1.453394358E1,-1.424437866E0,-1.660946045E0,1.798809357E0,2.832574818E0
1.454386458E1,-2.126328278E0,-3.891906738E-1,1.165177002E0,2.455682954E0
1.455378558E1,-2.223027191E0,1.705702972E0,3.143463135E-1,2.819589709E0
1.456370658E1,-2.086511078E0,3.393143921E0,-5.029541016E-2,3.983652065E0
1.457362658E1,-1.849703522E0,3.594175873E0,1.306782532E-1,4.044326907E0
1.458354758E1,-1.613045654E0,3.700903931E0,4.514611816E-1,4.062317489E0
1.459346858E1,-1.095122681E0,4.077969818E0,9.527687073E-1,4.328614066E0
1.460338958E1,-2.839595032E-1,4.343667297E0,1.481618958E0,4.598181524E0
1.461331058E1,6.262976074E-1,4.216581573E0,1.316961365E0,4.461636033E0
1.462323058E1,2.048789520E0,2.835703125E0,1.003812561E0,3.639559090E0
1.463315158E1,2.437830505E0,7.738906860E-2,6.553372192E-1,2.525563999E0
1.464307258E1,1.758393402E0,-1.370549927E0,2.052232361E-1,2.238854849E0
1.465299358E1,7.899073792E-1,-1.946851501E0,6.586303711E-3,2.101006382E0
1.466291458E1,-1.175056458E-1,-2.288291473E0,-9.879455566E-3,2.291327791E0
1.467283458E1,-8.846603394E-1,-2.301913147E0,1.923500061E-1,2.473545346E0
1.468275558E1,-1.517993317E0,-2.026785278E0,6.900650024E-1,2.624567008E0
1.469267658E1,-1.760039978E0,-1.538051605E0,8.840615845E-1,2.498981462E0
1.470259758E1,-1.841620331E0,-9.946815491E-1,7.934999084E-1,2.238436716E0
1.471251858E1,-2.045795746E0,-4.336482239E-1,5.782475281E-1,2.169723766E0
1.472243858E1,-1.818867645E0,1.422042847E-2,1.591191101E-1,1.825869826E0
1.473235958E1,-1.187031555E0,4.138893127E-1,-3.984713745E-1,1.318759915E0
1.474228058E1,-1.827699280E-1,7.349716187E-1,-6.077362061E-1,9.710465606E-1
1.475220158E1,1.314865723E0,1.061891785E0,-2.177970886E-1,1.704089670E0
1.476212158E1,3.480412445E0,-3.007246399E-1,2.244582367E0,4.152331405E0
1.477204258E1,4.352349243E0,-4.830604706E0,5.110522614E0,8.270134651E0
1.478196358E1,3.905079346E0,-8.358169098E0,4.636458435E0,1.032498824E1
1.479188458E1,3.848497009E0,-9.523196411E0,3.175945587E0,1.075122456E1
1.480180558E1,4.194577332E0,-1.091619965E1,3.513194275E0,1.221066860E1
1.481172558E1,4.528532867E0,-1.452264999E1,7.172335052E0,1.681836386E1
1.482164658E1,4.003724213E0,-2.409314804E1,7.192243652E0,2.546051765E1
1.483156758E1,1.506317596E0,-3.094739456E1,4.358187103E0,3.128903990E1
1.484148858E1,-5.830375671E-1,-3.251343796E1,8.755742340E0,3.367679623E1
1.485140958E1,-1.849853210E0,-2.995391052E1,1.316347641E1,3.277096007E1
1.486132958E1,-4.068539429E0,-2.679667603E1,1.248912872E1,2.984280810E1
1.487125058E1,-5.074597321E0,-2.392280228E1,8.909921722E0,2.602765283E1
1.488117158E1,-6.891668701E-1,-2.045810715E1,9.178463287E0,2.243330754E1
1.489109258E1,2.956651611E0,-1.890972702E1,1.010788055E1,2.164460242E1
1.490101358E1,3.268752594E0,-1.954201218E1,5.277724915E0,2.050437426E1
1.491093358E1,2.022294617E0,-2.083906494E1,5.967640228E0,2.177082987E1
1.492085458E1,2.213896179E0,-2.244477585E1,7.660170593E0,2.381905776E1
1.493077558E1,3.356619873E0,-2.351265518E1,7.372618561E0,2.486900390E1
1.494069658E1,3.199147339E0,-2.280986664E1,6.810986481E0,2.401903613E1
1.495061758E1,2.475102997E0,-2.160726746E1,6.276597748E0,2.263616180E1
1.496053758E1,1.395997009E0,-2.027009811E1,6.237528992E0,2.125399852E1
1.497045858E1,7.026388550E-1,-1.884790558E1,5.958060150E0,1.977967964E1
1.498037958E1,2.683918762E-1,-1.721569977E1,4.960384827E0,1.791808501E1
1.499030058E1,1.871109009E-2,-1.542048294E1,4.023034058E0,1.593663852E1
1.500022058E1,4.016148376E-1,-1.332079926E1,3.585044861E0,1.380063527E1
1.501014158E1,8.595126343E-1,-1.111932724E1,2.730022888E0,1.148177796E1
1.502006258E1,9.160949707E-1,-8.791517944E0,1.951791229E0,9.052044342E0
1.502998358E1,1.202449493E0,-6.039341125E0,1.593137054E0,6.360629819E0
1.503990537E1,8.904981995E-1,-3.973337402E0,1.373843079E0,4.297422711E0
1.504982537E1,3.252735901E-1,-2.759661255E0,1.515448608E0,3.165141013E0
1.505974637E1,-2.165995789E-1,-1.696571960E0,1.970502319E0,2.609243412E0
1.506966737E1,-8.655001831E-1,-5.005590820E-1,2.262994080E0,2.474023477E0
1.507958837E1,-1.135388947E0,1.136436768E0,2.264790344E0,2.776665606E0
1.508950937E1,-1.289418640E0,3.123404846E0,1.936223602E0,3.894511536E0
1.509942937E1,-1.461410980E0,3.873495026E0,1.271755371E0,4.330940717E0
1.510935037E1,-1.658101959E0,3.774550781E0,-2.751278687E-1,4.131855643E0
1.511927137E1,-1.678759003E0,3.962859192E0,-9.636959839E-1,4.410350861E0
1.512919237E1,-1.296304321E0,4.196373596E0,-3.787124634E-1,4.408330680E0
1.513911337E1,-6.607260132E-1,4.263733521E0,1.630110168E-1,4.317702513E0
1.514903337E1,7.795788574E-1,3.125650177E0,3.749702454E-1,3.243152002E0
1.515895437E1,2.057172089E0,4.896318054E-1,4.308041382E-1,2.158075187E0
1.516887537E1,2.159559174E0,-5.381309509E-1,5.059478760E-2,2.226171731E0
1.517879637E1,2.118993530E0,-8.717871094E-1,-2.291734314E-1,2.302752007E0
1.518871737E1,1.987267456E0,-1.042132874E0,-5.837860107E-2,2.244700632E0
1.519863737E1,1.756148071E0,-1.059047699E0,3.153941345E-1,2.074876270E0
1.520855837E1,1.001417542E0,-7.842192078E-1,8.277786255E-1,1.517581731E0
1.521847938E1,-5.539979553E-1,-3.379971313E-1,1.220711517E0,1.382494992E0
1.522840037E1,-1.559606781E0,-4.147874451E-1,1.605860596E0,2.276666464E0
1.523832037E1,-1.907034302E0,-7.753875732E-1,1.517544250E0,2.557527374E0
1.524824137E1,-1.853595428E0,-1.069076843E0,1.101259918E0,2.406556610E0
1.525816237E1,-1.518891449E0,-1.056802368E0,9.144483948E-1,2.063995723E0
1.526808337E1,-1.048719177E0,-4.878355408E-1,4.418811035E-1,1.238165715E0
1.527800437E1,-6.571334839E-2,-8.122109985E-1,1.739382935E-1,8.332223474E-1
1.528792437E1,1.059197388E0,-3.767066345E0,1.778451691E0,4.298322739E0
1.529784537E1,1.613494720E0,-6.633305969E0,4.053420868E0,7.939416479E0
1.530776637E1,2.536026306E0,-9.116641846E0,8.031099243E0,1.241141181E1
1.531768738E1,3.298989716E0,-1.242760666E1,1.228046265E1,1.778028412E1
1.532760837E1,3.098855896E0,-1.633523071E1,1.264121246E1,2.088642916E1
1.533752837E1,2.060315552E0,-2.146715881E1,6.569987640E0,2.254436837E1
1.534744937E1,2.305655365E0,-3.048126389E1,3.910168762E0,3.081741252E1
1.535737037E1,1.663191376E0,-3.061418747E1,6.669231262E0,3.137631791E1
1.536729137E1,6.466552734E-2,-2.351609802E1,8.881630554E0,2.513751000E1
1.537721237E1,2.211501160E0,-1.935624847E1,6.544839935E0,2.055212938E1
1.538713237E1,2.193239136E0,-1.846395401E1,7.455845490E0,2.003291111E1
1.539705337E1,-5.092410278E-1,-2.165771255E1,9.923464050E0,2.382836499E1
1.540697437E1,-1.604812775E0,-2.462514175E1,1.037851776E1,2.677100412E1
1.541689538E1,-3.284170532E-1,-2.598296814E1,1.026520340E1,2.793916412E1
1.542681637E1,6.471043396E-1,-2.637620041E1,9.042545929E0,2.789068534E1
1.543673637E1,4.758604431E-1,-2.636257874E1,8.772806854E0,2.778802154E1
1.544665737E1,-2.191442871E-1,-2.578463058E1,8.502319336E0,2.715114422E1
1.545657837E1,-7.828720093E-1,-2.407294006E1,7.378306732E0,2.519044942E1
1.546649937E1,-6.950047302E-1,-2.200603821E1,6.863078156E0,2.306188611E1
1.547642037E1,4.111949158E-1,-2.126777344E1,6.478527832E0,2.223642487E1
1.548634037E1,1.980082397E0,-2.084789658E1,5.509742432E0,2.165439400E1
1.549626137E1,3.250191193E0,-1.850781281E1,4.526586914E0,1.932855056E1
1.550618237E1,3.952530670E0,-1.533456161E1,3.573069763E0,1.623385679E1
1.551610338E1,3.998934174E0,-1.195354248E1,2.415077820E0,1.283398820E1
1.552602337E1,3.439547424E0,-9.305998077E0,2.037862244E0,1.012842383E1
1.553594437E1,2.583627319E0,-6.863227844E0,1.459914093E0,7.477324102E0
1.554586537E1,1.231040039E0,-4.753814392E0,1.072070618E0,5.026285533E0
1.555578637E1,1.814227295E-1,-3.498524780E0,1.706002350E0,3.896541269E0
1.556570737E1,-7.945477295E-1,-2.046244812E0,1.779499512E0,2.825781739E0
1.557562737E1,-1.363813934E0,-7.289840698E-1,1.643133087E0,2.256389276E0
1.558554837E1,-1.541195068E0,5.499563599E-1,1.437311096E0,2.177980125E0
1.559546937E1,-1.463955688E0,2.183958435E0,1.012494507E0,2.817443137E0
1.560539037E1,-1.435065765E0,3.201392670E0,9.550140381E-1,3.635984129E0
1.561531138E1,-1.576072540E0,3.381168823E0,8.217910767E-1,3.819901548E0
1.562523137E1,-1.658850403E0,3.725602570E0,5.357359314E-1,4.113260526E0
1.563515237E1,-1.536704407E0,4.253255310E0,1.063388672E0,4.645690114E0
1.564507337E1,-1.171014862E0,4.471202087E0,1.414558411E0,4.833621770E0
1.565499437E1,-4.225712585E-1,4.309238892E0,8.788224792E-1,4.418193663E0
1.566491537E1,9.303153992E-1,2.261646881E0,4.465214539E-1,2.485943436E0
1.567483537E1,1.460363159E0,-2.588117981E-1,1.698966980E-1,1.492819142E0
1.568475637E1,1.147962799E0,-1.109343109E0,-5.867797852E-2,1.597467942E0
1.569467737E1,6.120771790E-1,-1.456022186E0,-2.435435486E-1,1.598109051E0
1.570459837E1,1.013392639E-1,-1.572330322E0,-4.242178345E-1,1.631702503E0
1.571451938E1,-9.894424438E-2,-1.468745728E0,-2.851570129E-1,1.499439394E0
1.572443937E1,-3.047662354E-1,-1.229692841E0,1.098715210E-1,1.271651954E0
1.573436037E1,-6.469546509E-1,-8.879534912E-1,6.658154297E-1,1.284648555E0
1.574428137E1,-9.867480469E-1,-5.465135193E-1,1.002764740E0,1.509266663E0
1.575420237E1,-1.199755096E0,-1.332229614E-1,9.201365662E-1,1.517831331E0
1.576412237E1,-1.070124664E0,2.460882568E-1,8.255332947E-1,1.373765427E0
1.577404337E1,-8.650511169E-1,6.692582703E-1,7.752378845E-1,1.340602046E0
1.578396437E1,-8.701405334E-1,9.497749329E-1,5.436694336E-1,1.398139272E0
1.579388537E1,-5.477110291E-1,1.115779724E0,6.661148071E-2,1.244744493E0
1.580380637E1,8.951385498E-2,7.926017761E-1,3.682342529E-1,8.785367214E-1
1.581372637E1,8.283773804E-1,1.291813660E-1,1.438807983E0,1.665252330E0
1.582364737E1,2.021246796E0,-5.409750366E-1,1.406924286E0,2.521413997E0
1.583356837E1,2.474055176E0,-3.760779419E0,2.703677673E0,5.251122148E0
1.584348937E1,1.998793488E0,-7.946525116E0,5.006189575E0,9.602310706E0
1.585341037E1,2.583926697E0,-9.908195801E0,4.297712860E0,1.110492490E1
1.586333037E1,3.695664825E0,-1.216939362E1,6.206693115E0,1.415185920E1
1.587325137E1,5.977369995E0,-1.884131927E1,8.759334869E0,2.162059693E1
1.588317237E1,5.243595886E0,-3.041734680E1,4.394112396E0,3.117721136E1
1.589309337E1,-1.391206970E0,-3.450100479E1,-9.654922485E-2,3.452917766E1
1.590301437E1,-4.868625641E0,-3.011317932E1,1.128278732E1,3.252396615E1
1.591293437E1,-3.092868347E0,-2.543840057E1,1.822879303E1,3.144784498E1
1.592285537E1,-6.774911499E-1,-2.638982208E1,1.697425186E1,3.138482006E1
1.593277637E1,-2.787802734E0,-2.678904190E1,1.225666214E1,2.959139025E1
1.594269737E1,-3.220552826E0,-2.413700684E1,7.047644348E0,2.535027318E1
1.595261837E1,9.174421692E-1,-2.129097519E1,1.080348404E1,2.389273095E1
1.596253837E1,2.791245575E0,-2.069775879E1,8.689579926E0,2.262072214E1
1.597245937E1,1.544488220E0,-2.209136078E1,5.176685028E0,2.274228952E1
1.598238037E1,2.354603577E-1,-2.333572311E1,6.747219086E0,2.429272278E1
1.599230137E1,9.348060608E-1,-2.405392960E1,7.636370087E0,2.525429745E1
1.600222237E1,2.916385345E0,-2.423086166E1,7.850574646E0,2.563730646E1
1.601214237E1,4.403991852E0,-2.266466858E1,6.567742310E0,2.400453259E1
1.602206337E1,4.404440918E0,-2.188044937E1,5.550607452E0,2.299918276E1
1.603198437E1,2.956352234E0,-2.093277008E1,5.752088470E0,2.190907126E1
1.604190508E1,1.068627777E0,-1.865181335E1,5.067112885E0,1.935736913E1
1.605182608E1,-1.757345581E-1,-1.591041412E1,3.489393768E0,1.628950672E1
1.606174608E1,-7.626640320E-1,-1.348021774E1,2.293979645E0,1.369526449E1
1.607166708E1,-3.638932800E-1,-1.090766739E1,1.722318420E0,1.104880115E1
1.608158808E1,6.782395935E-1,-8.051905975E0,1.369651794E0,8.195678423E0
1.609150908E1,1.128503265E0,-5.030888214E0,6.557862854E-1,5.197442784E0
1.610142908E1,1.171912994E0,-3.405867462E0,1.419198761E0,3.871361306E0
1.611135008E1,5.495072937E-1,-2.421963501E0,2.361788635E0,3.427230810E0
1.612127108E1,-1.435514832E-1,-1.058149567E0,2.311493225E0,2.546230246E0
1.613119208E1,-4.623884583E-1,4.969665527E-2,1.644330597E0,1.708828826E0
1.614111308E1,-2.384541321E-1,1.612596588E0,7.780819702E-1,1.806305534E0
1.615103308E1,-6.242019653E-2,2.756068726E0,4.748126221E-1,2.797366284E0
1.616095408E1,-1.368154907E-1,2.976859589E0,6.565347290E-1,3.051466752E0
1.617087508E1,6.586303711E-3,3.015928345E0,3.969744873E-1,3.041949359E0
1.618079608E1,6.900650024E-2,3.379372559E0,-1.341210938E-1,3.382736947E0
1.619071708E1,2.079176331E-1,3.892056427E0,-1.185534668E-1,3.899408660E0
1.620063708E1,3.264710999E-1,4.233197021E0,3.959266663E-1,4.264187886E0
1.621055808E1,3.022215271E-1,4.551884308E0,6.150709534E-1,4.603183777E0
1.622047908E1,2.836601257E-1,4.377646637E0,7.668553162E-1,4.453349326E0
1.623040008E1,9.372010803E-1,1.615889740E0,9.831555176E-1,2.110933511E0
1.624032108E1,1.349443817E0,-4.884342957E-1,8.445437622E-1,1.665178922E0
1.625024108E1,9.401948547E-1,-1.281784515E0,4.749623108E-1,1.659074171E0
1.626016208E1,1.615141296E-1,-1.678309937E0,5.313949585E-2,1.686900964E0
1.627008308E1,-3.683839417E-1,-1.734293518E0,-2.267784119E-1,1.787430889E0
1.628000408E1,-1.154848480E0,-1.300944672E0,-3.498225403E-1,1.774403522E0
1.628992508E1,-1.468745728E0,-7.427554321E-1,-3.547622681E-1,1.683673339E0
1.629984508E1,-1.336570587E0,-5.278024292E-1,-6.451583862E-2,1.438457032E0
1.630976608E1,-1.271605682E0,-4.219725037E-1,7.135661316E-1,1.517965227E0
1.631968708E1,-1.226100311E0,-2.386038208E-1,1.835183716E0,2.219944375E0
1.632960808E1,-1.515747986E0,2.814147949E-2,2.509830780E0,2.932155256E0
1.633952808E1,-1.557511139E0,-6.047424316E-2,3.010689240E0,3.390243027E0
1.634944908E1,-1.188977509E0,-1.874102783E-1,2.849773865E0,3.093541855E0
1.635937008E1,2.859054565E-2,-1.045276337E0,2.140249329E0,2.382034263E0
1.636929108E1,1.426234131E0,-4.661456451E0,3.478466492E0,5.988576557E0
1.637921208E1,2.868634644E0,-8.942853241E0,3.169508972E0,9.912087365E0
1.638913208E1,5.374423828E0,-1.083866089E1,1.354533234E0,1.217356816E1
1.639905308E1,6.966513062E0,-1.319550980E1,5.200036469E0,1.580171390E1
1.640897408E1,6.551126862E0,-1.682845505E1,1.010353958E1,2.069288947E1
1.641889508E1,2.785557404E0,-1.909159882E1,7.734116821E0,2.078617421E1
1.642881608E1,-1.692680054E0,-2.386966278E1,4.241429901E0,2.430258617E1
1.643873608E1,-4.851710815E0,-2.912792816E1,4.099524994E0,2.981243704E1
1.644865708E1,-4.386927338E0,-3.092045059E1,1.047731232E1,3.294075697E1
1.645857808E1,-1.919907532E0,-2.763044220E1,1.102981339E1,2.981248337E1
1.646849908E1,-2.046394501E0,-2.483111343E1,9.399403839E0,2.662932063E1
1.647842008E1,-4.002227325E0,-2.519530609E1,1.038315811E1,2.754326134E1
1.648834008E1,-3.503165131E0,-2.667647598E1,1.061203217E1,2.892268597E1
1.649826108E1,-1.149759064E0,-2.551279587E1,8.640631714E0,2.696080888E1
1.650818208E1,7.156617737E-1,-2.364707565E1,7.676486664E0,2.487216931E1
1.651810308E1,1.361119537E0,-2.255898834E1,6.885381775E0,2.362560229E1
1.652802408E1,1.379980316E0,-2.330294128E1,7.259902954E0,2.444662776E1
1.653794408E1,1.324595490E0,-2.360007339E1,7.523055725E0,2.480553134E1
1.654786508E1,2.257006531E0,-2.405797119E1,6.876101074E0,2.512291429E1
1.655778608E1,3.185226288E0,-2.368330032E1,6.019582214E0,2.464304670E1
1.656770708E1,3.522924042E0,-2.125909149E1,4.874912567E0,2.209354515E1
1.657762808E1,2.978057098E0,-1.772628799E1,3.880979462E0,1.838891274E1
1.658754808E1,2.128723297E0,-1.416728897E1,3.286715240E0,1.469850457E1
1.659746908E1,1.785337372E0,-1.095736404E1,2.375559998E0,1.135317320E1
1.660739008E1,1.164877625E0,-8.105195160E0,1.270857239E0,8.286507502E0
1.661731108E1,5.634283447E-1,-5.609135742E0,3.926335144E-1,5.651019054E0
1.662723208E1,3.035687256E-1,-4.182751923E0,7.092251587E-1,4.253300829E0
1.663715208E1,-2.290237427E-1,-2.870580597E0,1.183139648E0,3.113278700E0
1.664707308E1,-1.056802368E0,-1.410217438E0,1.407373352E0,2.255270321E0
1.665699408E1,-1.841171265E0,-9.774673462E-2,1.559756470E0,2.415016831E0
1.666691508E1,-1.864672394E0,1.620979156E0,1.138382721E0,2.720384491E0
1.667683508E1,-1.588197327E0,2.886597290E0,6.819818115E-1,3.364507966E0
1.668675608E1,-1.382974091E0,2.880909119E0,8.264314270E-1,3.300794388E0
1.669667708E1,-1.259031830E0,2.737956390E0,4.330494690E-1,3.044519369E0
1.670659808E1,-1.130000153E0,2.928959198E0,-4.108955383E-1,3.166154998E0
1.671651908E1,-8.592132568E-1,3.214864655E0,-8.196954346E-1,3.427171249E0
1.672643908E1,-5.037025452E-1,3.547023926E0,-1.115630035E0,3.752296012E0
1.673636008E1,-1.740879822E-1,3.903283081E0,-1.227597198E0,4.095475591E0
1.674628108E1,3.803590393E-1,3.986210632E0,-6.843768311E-1,4.062378595E0
1.675620208E1,1.684896240E0,2.350262604E0,2.389031982E-1,2.901669241E0
1.676612308E1,2.413131866E0,8.337661743E-2,8.298742676E-1,2.553203550E0
1.677604308E1,2.273172913E0,-1.085841980E0,9.800120544E-1,2.703107753E0
1.678596408E1,2.038460999E0,-1.835483093E0,9.096583557E-1,2.889948054E0
1.679588508E1,1.546434174E0,-2.337389374E0,8.918453979E-1,2.941128347E0
1.680580608E1,1.306782532E-1,-2.056723022E0,8.577163696E-1,2.232232911E0
1.681572708E1,-9.565109253E-1,-1.499731293E0,7.976911926E-1,1.949466168E0
1.682564708E1,-1.379082184E0,-1.191372528E0,1.014440460E0,2.085743421E0
1.683556808E1,-1.557660828E0,-8.113128662E-1,1.355131989E0,2.218314344E0
1.684548908E1,-1.599124603E0,-3.426374817E-1,1.706451416E0,2.363593953E0
1.685541008E1,-1.656754761E0,5.763015747E-2,2.314936066E0,2.847294604E0
1.686533108E1,-1.706601105E0,2.071691895E-1,2.107916565E0,2.720058574E0
1.687525108E1,-1.086291046E0,2.965333557E-1,9.927355957E-1,1.501160961E0
1.688517208E1,-9.804611206E-2,2.797682190E-1,6.185137939E-1,6.858881904E-1
1.689509308E1,1.405427399E0,-3.164419556E-1,1.624871063E0,2.171535783E0
1.690501408E1,2.775977325E0,-3.822900238E0,5.386997681E0,7.165218793E0
1.691493508E1,3.078947296E0,-8.983119507E0,7.088659058E0,1.185012404E1
1.692485508E1,3.470832367E0,-1.133218460E1,4.468507690E0,1.266620094E1
1.693477608E1,3.044518890E0,-1.379755783E1,6.486910400E0,1.554740184E1
1.694469708E1,1.642833710E0,-1.747151779E1,1.192704758E1,2.121808899E1
1.695461808E1,-4.806504822E-1,-2.271406586E1,9.468260651E0,2.461316258E1
1.696453808E1,-1.663939819E0,-3.259277298E1,4.631069641E0,3.296216547E1
1.697445908E1,-2.326013031E0,-3.262256104E1,5.298831024E0,3.313184926E1
1.698438008E1,-3.382366333E0,-2.431513641E1,6.305787048E0,2.534618731E1
1.699430108E1,-1.665287018E0,-1.987536896E1,7.283853149E0,2.123341679E1
1.700422208E1,1.908231812E0,-1.963916016E1,9.715995483E0,2.199405666E1
1.701414208E1,2.369871826E0,-2.204390945E1,1.043135788E1,2.450231548E1
1.702406308E1,1.979184265E0,-2.600048172E1,1.087757996E1,2.825356554E1
1.703398412E1,1.792073364E0,-2.959974701E1,1.059377014E1,3.148943499E1
1.704390512E1,6.346801758E-1,-2.943179626E1,1.053494247E1,3.126689085E1
1.705382612E1,-1.604663086E-1,-2.812082245E1,1.024664200E1,2.992991943E1
1.706374612E1,-5.105882263E-1,-2.602098907E1,9.965376892E0,2.786864384E1
1.707366712E1,-7.741900635E-1,-2.325743591E1,9.379345551E0,2.508943639E1
1.708358812E1,4.221221924E-2,-2.094354767E1,8.124055939E0,2.246406588E1
1.709350912E1,1.930834808E0,-1.927975754E1,6.799759827E0,2.053470008E1
1.710343012E1,3.178789673E0,-1.757285706E1,5.282215576E0,1.862288405E1
1.711335012E1,3.423830109E0,-1.565205139E1,4.184997253E0,1.655969587E1
1.712327112E1,2.952310638E0,-1.303369629E1,2.857407990E0,1.366594883E1
1.713319212E1,2.839595032E0,-1.008662476E1,1.409768372E0,1.057311429E1
1.714311312E1,2.214345245E0,-7.638016663E0,4.852908325E-1,7.967316399E0
1.715303412E1,1.262324982E0,-5.442083130E0,-2.170486450E-1,5.590781991E0
1.716295412E1,4.222718811E-1,-3.999981995E0,-2.993774414E-3,4.022210644E0
1.717287512E1,-3.330574036E-1,-2.924618225E0,7.222480774E-1,3.030835080E0
1.718279612E1,-1.091829529E0,-1.350491638E0,1.218765564E0,2.121628828E0
1.719271712E1,-1.634002075E0,-4.475692749E-2,1.789977722E0,2.424043360E0
1.720263812E1,-1.825453949E0,1.508413239E0,2.101629639E0,3.166139567E0
1.721255812E1,-1.747615814E0,2.804717560E0,2.196532288E0,3.968041799E0
1.722247912E1,-2.058519287E0,3.330574036E0,1.561403046E0,4.215234814E0
1.723240012E1,-2.360591125E0,3.509601746E0,1.137634277E-1,4.231150788E0
1.724232112E1,-2.465073853E0,3.854035492E0,-8.295748901E-1,4.649556234E0
1.725224212E1,-2.206561432E0,4.378245392E0,-5.517526245E-1,4.933799451E0
1.726216212E1,-1.635798340E0,4.812192993E0,1.025367737E-1,5.083655319E0
1.727208312E1,6.242019653E-2,3.465144196E0,6.900650024E-1,3.533738853E0
1.728200412E1,1.268911285E0,8.532257080E-3,1.025218048E0,1.631343218E0
1.729192512E1,1.173409882E0,-1.462309113E0,6.891668701E-1,1.997545911E0
1.730184512E1,7.740403748E-1,-1.700014801E0,1.830693054E-1,1.876886570E0
1.731176612E1,4.903802490E-1,-1.665287018E0,-6.122268677E-2,1.737067027E0
1.732168712E1,1.026864624E-1,-1.165027313E0,-1.930984497E-2,1.169703390E0
1.733160812E1,-5.179229736E-2,-5.869294739E-1,1.408570862E-1,6.058129811E-1
1.734152912E1,-3.085084534E-1,-2.035766602E-1,4.340972900E-1,5.701415435E-1
1.735144912E1,-6.180647278E-1,-4.495152283E-1,7.499404907E-1,1.070737450E0
1.736137012E1,-7.937992859E-1,-7.026388550E-1,7.394622803E-1,1.292525872E0
1.737129112E1,-1.002016296E0,-2.001338196E-1,6.230044556E-1,1.196755930E0
1.738121212E1,-1.127605133E0,3.284170532E-1,8.119116211E-1,1.427778546E0
1.739113312E1,-1.186582489E0,4.980143738E-1,8.934919739E-1,1.566628299E0
1.740105312E1,-9.184899902E-1,3.869453430E-1,1.108594666E0,1.490749038E0
1.741097412E1,-3.209326172E-1,2.032772827E-1,1.531764679E0,1.578170596E0
1.742089512E1,1.499431915E0,-2.652484131E-1,7.798782349E-1,1.710807660E0
1.743081612E1,2.596949615E0,-4.273014221E0,3.662284241E0,6.197993522E0
1.744073712E1,1.880389709E0,-8.398734741E0,5.494923248E0,1.021120915E1
1.745065712E1,2.461181946E0,-9.615853729E0,4.179458771E0,1.076986235E1
1.746057812E1,4.531676331E0,-1.306677750E1,8.072413330E0,1.601376350E1
1.747049912E1,8.029452667E0,-2.249971161E1,1.176224030E1,2.662816985E1
1.748042012E1,6.467899933E0,-2.673934525E1,3.470383301E0,2.772850292E1
1.749034112E1,1.485211487E0,-2.444252151E1,-1.675016785E0,2.454482415E1
1.750026112E1,-3.555705872E0,-2.350651794E1,3.707340546E0,2.406125109E1
1.751018212E1,-4.937931519E0,-2.301059921E1,1.043644730E1,2.574471355E1
1.752010312E1,-3.444187775E0,-2.433294937E1,1.112546448E1,2.697648632E1
1.753002412E1,-3.025508423E0,-2.848247040E1,1.090676926E1,3.064902016E1
1.753994512E1,-5.141059113E0,-3.157054871E1,1.158964920E1,3.402131689E1
1.754986512E1,-5.764063568E0,-2.976724869E1,9.085805969E0,3.165225732E1
1.755978612E1,-2.593357086E0,-2.751263718E1,7.984246674E0,2.876489006E1
1.756970712E1,6.080355835E-1,-2.509471527E1,7.313042450E0,2.614565034E1
1.757962812E1,1.750459900E0,-2.293186295E1,5.445825348E0,2.363453959E1
1.758954912E1,2.646197205E0,-2.222772720E1,5.990542603E0,2.317241500E1
1.759946912E1,3.225043488E0,-2.218476654E1,7.427105255E0,2.361623730E1
1.760939012E1,3.640130310E0,-2.194870743E1,7.656578064E0,2.352912013E1
1.761931112E1,3.919449463E0,-2.055705139E1,6.325545959E0,2.186245589E1
1.762923212E1,4.102369080E0,-1.835063965E1,4.498595123E0,1.933423817E1
1.763915312E1,3.029849396E0,-1.608001144E1,3.838916931E0,1.680726148E1
1.764907312E1,1.593137054E0,-1.335702393E1,3.217409363E0,1.383112059E1
1.765899412E1,7.182064819E-1,-1.079749649E1,2.375410309E0,1.107900380E1
1.766891512E1,-1.746867371E-1,-8.401129761E0,1.136137390E0,8.479404748E0
1.767883612E1,-7.967930603E-1,-6.078709259E0,2.948867798E-1,6.137796319E0
1.768875712E1,-8.180488586E-1,-4.139192505E0,7.023394775E-1,4.277312155E0
1.769867712E1,-4.599934387E-1,-2.913541260E0,1.742526398E0,3.425888919E0
1.770859812E1,-7.325765991E-1,-1.536704407E0,1.863025818E0,2.523686610E0
1.771851912E1,-1.280587006E0,-2.543211365E-1,1.656455383E0,2.109129383E0
1.772844012E1,-1.422940979E0,1.482517090E0,1.571581879E0,2.586984258E0
1.773836112E1,-1.345102844E0,3.389401703E0,1.351090393E0,3.888803263E0
1.774828112E1,-1.411564636E0,4.113146667E0,1.464404755E0,4.588569659E0
1.775820212E1,-1.653611298E0,4.232897644E0,8.110134888E-1,4.616231761E0
1.776812312E1,-1.509311371E0,4.257596283E0,2.330653381E-1,4.523214164E0
1.777804412E1,-8.349636841E-1,4.184548187E0,5.194198608E-1,4.298535201E0
1.778796412E1,1.645079041E-1,3.795956268E0,5.727090454E-1,3.842439654E0
1.779788512E1,1.525777130E0,1.984872437E0,1.695973206E-1,2.509278321E0
1.780780612E1,1.959425354E0,4.131408691E-2,1.209484863E-1,1.963589343E0
1.781772712E1,1.985770569E0,-7.183561707E-1,2.460882568E-1,2.126000887E0
1.782764812E1,1.930984497E0,-9.762698364E-1,4.953199768E-1,2.219717505E0
1.783756812E1,1.389111328E0,-7.427554321E-1,5.173242188E-1,1.657992841E0
1.784748912E1,1.104702759E-1,-1.371148682E-1,2.350112915E-1,2.936570722E-1
1.785741012E1,-7.026388550E-1,-1.676513672E-1,1.278341675E-1,7.335870199E-1
1.786733112E1,-1.148411865E0,-5.141807556E-1,-5.912704468E-2,1.259653789E0
1.787725212E1,-1.574575653E0,-9.113049316E-1,-2.782713318E-1,1.840434758E0
1.788717212E1,-1.781595154E0,-9.668394470E-1,-3.362008667E-1,2.054724028E0
1.789709312E1,-1.949994965E0,-7.325765991E-1,-1.320254517E-1,2.087242093E0
1.790701412E1,-1.934277649E0,-3.855981445E-1,3.429368591E-1,2.001929480E0
1.791693512E1,-1.705104218E0,-1.348695374E-1,1.112037506E0,2.040146465E0
1.792685612E1,-1.557810516E0,-2.773731995E-1,2.180216217E0,2.693891655E0
1.793677612E1,-1.616937561E0,-3.878434753E-1,1.720372467E0,2.392611766E0
1.794669712E1,-5.878276062E-1,-1.007105713E0,1.983974304E0,2.301294690E0
1.795661812E1,6.777905273E-1,-5.341492310E0,5.530549164E0,7.718673082E0
1.796653912E1,1.755249939E0,-8.571475525E0,6.562503204E0,1.093698054E1
1.797646012E1,3.926335144E0,-1.066172882E1,6.436614990E0,1.305827637E1
1.798638012E1,6.771468658E0,-1.576177322E1,5.882467346E0,1.813531651E1
1.799630112E1,7.025789795E0,-2.374422363E1,3.344644775E0,2.498672701E1
1.800622212E1,2.006577301E0,-2.779914139E1,4.176165619E0,2.818260055E1
1.801614312E1,-5.969586182E-1,-2.932701416E1,7.302414551E0,3.022838695E1
1.802606412E1,-5.815406799E-1,-2.627141830E1,8.071814575E0,2.748963077E1
1.803598433E1,5.474116516E-1,-2.222578125E1,7.686665497E0,2.352381428E1
1.804590533E1,2.318378906E0,-2.115984787E1,7.102729797E0,2.244020528E1
1.805582633E1,2.461780701E0,-2.162253571E1,1.055051010E1,2.418486465E1
1.806574733E1,1.396595764E0,-2.483889725E1,1.137394775E1,2.735485302E1
1.807566833E1,1.351689148E0,-2.818144638E1,1.001222946E1,2.993769735E1
1.808558833E1,1.960323486E0,-2.899605240E1,8.878187714E0,3.038809207E1
1.809550933E1,1.772015076E0,-2.662228867E1,8.430169373E0,2.798131603E1
1.810543033E1,1.441352692E0,-2.341161530E1,7.660919037E0,2.467530970E1
1.811535133E1,1.965263214E0,-2.120969421E1,6.760691071E0,2.234771424E1
1.812527233E1,2.514321442E0,-1.964694397E1,5.802234192E0,2.063952861E1
1.813519233E1,2.170187073E0,-1.892469589E1,5.222040710E0,1.975154515E1
1.814511333E1,1.352138214E0,-1.839225311E1,4.932991791E0,1.909025040E1
1.815503433E1,5.071453857E-1,-1.733395386E1,4.061653748E0,1.781067612E1
1.816495533E1,-3.806584167E-1,-1.587793167E1,2.868634644E0,1.613947582E1
1.817487633E1,-1.006357269E0,-1.378992371E1,2.004631348E0,1.397115949E1
1.818479633E1,-1.306333466E0,-1.107067841E1,1.650318146E0,1.126898298E1
1.819471733E1,-1.261576538E0,-8.377179565E0,1.976789246E0,8.699218847E0
1.820463833E1,-1.156644745E0,-5.597909088E0,2.269879761E0,6.150346929E0
1.821455933E1,-8.550219727E-1,-3.304378510E0,3.048859863E0,4.576628276E0
1.822448033E1,-6.140231323E-1,-1.945803680E0,3.927682343E0,4.426043939E0
1.823440033E1,-1.117276611E0,-9.755213928E-1,3.860771484E0,4.135880253E0
1.824432133E1,-1.610500946E0,2.399510193E-1,3.044369202E0,3.452459069E0
1.825424233E1,-1.900897064E0,1.944007416E0,1.986818390E0,3.367494884E0
1.826416333E1,-1.925895081E0,3.375630341E0,6.884184265E-1,3.946881299E0
1.827408333E1,-1.707050171E0,3.861968994E0,-8.652008057E-2,4.223305639E0
1.828400433E1,-1.160836029E0,4.013453979E0,1.493893433E-1,4.180630372E0
1.829392533E1,1.493893433E-1,3.955674133E0,1.001118164E0,4.083125347E0
1.830384633E1,2.481838989E0,2.607128448E0,1.708996124E0,3.984634396E0
1.831376733E1,3.960314484E0,4.113446045E-1,2.218835907E0,4.558127683E0
1.832368733E1,4.775818634E0,-9.352551270E-1,1.943109283E0,5.240116360E0
1.833360833E1,4.796924744E0,-1.839225311E0,1.347048798E0,5.311099435E0
1.834352933E1,3.329825592E0,-2.001038818E0,6.623725891E-1,3.940892319E0
1.835345033E1,1.497785339E0,-1.595831451E0,4.489164734E-1,2.234181046E0
1.836337133E1,1.378633118E-1,-1.028810577E0,2.335144043E-2,1.038269130E0
1.837329133E1,-4.010160828E-1,-3.579057312E-1,-7.018904114E-1,8.840591387E-1
1.838321233E1,-5.686674500E-1,4.234693909E-1,-9.684860229E-1,1.200280871E0
1.839313333E1,-4.400848389E-1,1.060245209E0,-9.159452820E-1,1.468587869E0
1.840305433E1,-6.101312256E-1,1.028361511E0,-4.528083801E-1,1.278601947E0
1.841297533E1,-1.192270660E0,3.110531616E-1,-5.089416504E-2,1.233228938E0
1.842289533E1,-2.058968353E0,-3.974235535E-1,1.025367737E-1,2.099478495E0
1.843281633E1,-2.773731995E0,-1.068328400E0,-9.131011963E-3,2.972372474E0
1.844273733E1,-2.902613983E0,-1.594334564E0,-4.119433594E-1,3.337179643E0
1.845265833E1,-2.484084320E0,-2.107168121E0,-4.992118835E-1,3.295458224E0
1.846257933E1,-1.994901581E0,-2.951711884E0,-5.194198608E-2,3.562994994E0
1.847249933E1,-1.177451477E0,-3.950734406E0,2.287093964E0,4.714392126E0
1.848242033E1,-1.963916016E-1,-6.300098877E0,7.528294830E0,9.818606753E0
1.849234133E1,1.574575653E0,-9.987081757E0,1.123803040E1,1.511669334E1
1.850226233E1,3.771107941E0,-1.384785324E1,9.919272766E0,1.744638262E1
1.851218333E1,4.286935272E0,-1.854179214E1,6.456224213E0,2.009623599E1
1.852210333E1,2.623444519E0,-2.231843857E1,3.619173889E0,2.276166912E1
1.853202433E1,9.975256348E-1,-2.277034882E1,2.816393280E0,2.296553752E1
1.854194533E1,6.343807983E-1,-2.239582764E1,5.475463715E0,2.306417650E1
1.855186633E1,9.328601074E-1,-2.264236496E1,7.878416748E0,2.399200636E1
1.856178733E1,2.031126251E0,-2.396022446E1,1.022793091E1,2.613098545E1
1.857170733E1,3.178190918E0,-2.604643616E1,1.451336929E1,2.998592374E1
1.858162833E1,2.938239899E0,-2.884157364E1,1.932137100E1,3.483941735E1
1.859154933E1,-1.434167633E0,-2.964345612E1,1.473101669E1,3.313297723E1
1.860147033E1,-4.181853790E0,-2.483410721E1,5.992338867E0,2.588684815E1
1.861139133E1,5.897735596E-2,-1.884446274E1,8.995244293E0,2.088137146E1
1.862131133E1,4.086951141E0,-1.714983673E1,1.089015381E1,2.072234348E1
1.863123233E1,4.357288971E0,-1.820454346E1,5.860612793E0,1.961474323E1
1.864115333E1,1.730401611E0,-1.903741150E1,4.466262360E0,1.963071129E1
1.865107433E1,-1.305285645E-1,-1.908875473E1,5.379213867E0,1.983263817E1
1.866099433E1,6.197113037E-2,-1.855795853E1,5.390141144E0,1.932499125E1
1.867091533E1,1.100661163E0,-1.714130447E1,4.901407471E0,1.786223864E1
1.868083633E1,1.428479462E0,-1.503353760E1,4.360133057E0,1.571809679E1
1.869075733E1,1.281934204E0,-1.269031036E1,3.513044586E0,1.322984560E1
1.870067833E1,1.086590424E0,-1.051114197E1,2.752326508E0,1.091971087E1
1.871059833E1,-4.640350342E-3,-8.674611053E0,2.394121399E0,8.998928588E0
1.872051933E1,-1.190773773E0,-7.082072754E0,2.350262604E0,7.556284204E0
1.873044033E1,-1.942809906E0,-5.680986328E0,2.140548706E0,6.374171692E0
1.874036133E1,-2.063159637E0,-4.182153168E0,1.424437866E0,4.876069733E0
1.875028233E1,-1.472338257E0,-3.063379669E0,1.454525299E0,3.696987799E0
1.876020233E1,-1.421743469E0,-1.769170990E0,2.052681427E0,3.060199589E0
1.877012333E1,-1.369053040E0,-1.844165039E-1,2.135908356E0,2.543702061E0
1.878004433E1,-1.220711517E0,1.481319580E0,1.105451202E0,2.215054552E0
1.878996533E1,-1.128652954E0,2.785557404E0,5.215155029E-1,3.050437011E0
1.879988633E1,-1.315913544E0,3.339106293E0,7.285350037E-1,3.662242829E0
1.880980633E1,-1.212478638E0,3.466042328E0,8.267308044E-1,3.763912551E0
1.881972733E1,-5.095404053E-1,3.514391785E0,1.133892059E0,3.727773094E0
1.882964833E1,1.784289551E-1,3.547922058E0,1.485211487E0,3.850381927E0
1.883956933E1,3.628454590E-1,2.823728027E0,1.389261017E0,3.167829379E0
1.884949033E1,4.556524658E-1,7.906558228E-1,8.467890930E-1,1.244912675E0
1.885941033E1,5.474116516E-1,-3.933819580E-1,3.391946411E-1,7.546269845E-1
1.886933133E1,7.969427490E-1,-8.791218567E-1,-2.305206299E-2,1.186804273E0
1.887925233E1,1.318757629E0,-1.174158325E0,-2.731819153E-1,1.786728244E0
1.888917333E1,1.527872772E0,-1.448238373E0,-3.445834351E-1,2.133196507E0
1.889909433E1,1.075513458E0,-1.544039154E0,-4.129911804E-1,1.926485874E0
1.890901433E1,2.805166626E-1,-1.251248016E0,-8.900491333E-1,1.560928780E0
1.891893533E1,-3.606001282E-1,-8.875044250E-1,-1.274749146E0,1.594578923E0
1.892885633E1,-7.689509583E-1,-8.256829834E-1,-7.206015015E-1,1.338769767E0
1.893877733E1,-1.162033539E0,-1.116677856E0,2.023791504E-1,1.624268666E0
1.894869733E1,-1.183888092E0,-1.690584412E0,6.451583862E-1,2.162382022E0
1.895861833E1,-9.475296021E-1,-2.381248169E0,1.244512024E0,2.849028846E0
1.896853933E1,-4.077520752E-1,-3.784579926E0,2.340832214E0,4.468646599E0
1.897846033E1,4.411326599E-1,-5.955814819E0,4.298461304E0,7.358199356E0
1.898838133E1,8.912466431E-1,-8.133486328E0,5.644162903E0,9.940045035E0
1.899830133E1,1.689985657E0,-1.167003204E1,7.363786926E0,1.390219613E1
1.900822233E1,2.594704285E0,-1.812805252E1,1.073896820E1,2.122932445E1
1.901814333E1,1.875449982E0,-2.546489548E1,1.039363632E1,2.756820434E1
1.902806433E1,1.252894592E0,-3.111295029E1,4.566254425E0,3.147119476E1
1.903798458E1,2.225871277E-1,-3.279305649E1,5.951174469E0,3.332942508E1
1.904790458E1,-2.203717346E0,-2.565993988E1,9.183702393E0,2.734281029E1
1.905782558E1,-1.018032990E0,-1.699939957E1,6.646179199E0,1.828080071E1
1.906774658E1,5.102888489E-1,-1.262609390E1,7.652536469E0,1.477294677E1
1.907766758E1,-5.528004456E-1,-1.332603836E1,1.088446564E1,1.721512355E1
1.908758858E1,-1.818418579E0,-1.623913055E1,1.057311310E1,1.946295784E1
1.909750858E1,-1.180445251E0,-1.907079208E1,1.086246140E1,2.197911803E1
1.910742958E1,-3.821553040E-1,-2.258563293E1,1.020862106E1,2.478856191E1
1.911735058E1,1.766326904E-1,-2.448458405E1,9.524393921E0,2.627242156E1
1.912727158E1,-1.713935852E-1,-2.448712875E1,1.003707779E1,2.646491604E1
1.913719258E1,-6.882687378E-1,-2.341805191E1,9.602531433E0,2.531970535E1
1.914711258E1,-8.433462524E-1,-2.255943741E1,9.123078461E0,2.434892215E1
1.915703358E1,-1.019829254E0,-2.215931946E1,8.436007233E0,2.373271389E1
1.916695458E1,-1.034648438E0,-2.097318604E1,7.447313232E0,2.228020431E1
1.917687558E1,-7.875123596E-1,-1.916704193E1,6.618037720E0,2.029271040E1
1.918679658E1,-5.821394348E-1,-1.701406906E1,5.354664917E0,1.784628445E1
1.919671658E1,-1.830693054E-1,-1.435948929E1,3.778592377E0,1.484945142E1
1.920663758E1,6.730004883E-1,-1.135583542E1,2.404749298E0,1.162715558E1
1.921655858E1,1.628613281E0,-8.804241486E0,1.524878998E0,9.082527474E0
1.922647958E1,2.222428436E0,-6.569089508E0,1.023272095E0,7.009936583E0
1.923640058E1,2.414029999E0,-4.287084961E0,9.654922485E-2,4.920971454E0
1.924632058E1,1.917512512E0,-2.267784119E0,-5.733078003E-1,3.024629048E0
1.925624158E1,1.024918671E0,-1.183888092E0,-4.493655396E-1,1.629103644E0
1.926616258E1,-1.067280579E-1,-2.972817993E-1,-1.860630798E-1,3.665880743E-1
1.927608358E1,-8.659492493E-1,9.400451660E-1,2.260299683E-1,1.297937812E0
1.928600358E1,-1.012943573E0,2.237247620E0,1.347348175E0,2.801192371E0
1.929592458E1,-1.034498749E0,3.501817932E0,2.282154236E0,4.305942922E0
1.930584558E1,-1.338067474E0,4.371359711E0,2.230661316E0,5.086753404E0
1.931576658E1,-2.039808197E0,4.454586639E0,1.415456543E0,5.099772234E0
1.932568758E1,-2.715054016E0,4.336182861E0,7.626640320E-1,5.172587026E0
1.933560758E1,-2.731819153E0,3.420536957E0,1.096020813E0,4.512667790E0
1.934552858E1,-9.210346985E-1,-6.198609924E-1,1.356778564E0,1.753105998E0
1.935544958E1,4.511618042E-1,-2.859054565E0,1.024170227E0,3.070287386E0
1.936537058E1,1.120120697E0,-3.652554474E0,4.083508301E-1,3.842209646E0
1.937529158E1,1.943109283E0,-4.064647522E0,-6.960525513E-2,4.505760541E0
1.938521158E1,2.477647705E0,-3.779041443E0,1.170565796E-1,4.520353373E0
1.939513258E1,1.649270325E0,-1.776954803E0,4.698728943E-1,2.469502281E0
1.940505358E1,4.640350342E-1,2.906954956E-1,4.231700134E-1,6.920298002E-1
1.941497458E1,-6.656657410E-1,1.303639069E0,1.559756470E-1,1.472044192E0
1.942489558E1,-1.607806549E0,1.683249664E0,-2.386038208E-1,2.339936562E0
1.943481558E1,-2.158361664E0,1.502126312E0,-5.201683044E-1,2.680575236E0
1.944473658E1,-2.586770782E0,1.050365753E0,-3.463796997E-1,2.813295255E0
1.945465758E1,-2.823278961E0,7.237449646E-1,1.661544800E-1,2.919300974E0
1.946457858E1,-2.710114288E0,5.457650757E-1,5.405259705E-1,2.816868349E0
1.947449958E1,-2.207609253E0,6.586303711E-3,6.884184265E-1,2.312466632E0
1.948441958E1,-1.426383820E0,6.646179199E-2,-8.622070313E-1,1.668049440E0
1.949434058E1,-3.603007507E-1,-1.032852173E-2,-1.243314514E0,1.294509286E0
1.950426158E1,9.325607300E-2,-1.787882080E0,1.835183716E0,2.563809333E0
1.951418258E1,-1.676513672E-2,-5.305267639E0,8.277187500E0,9.831478968E0
1.952410358E1,2.993774414E-1,-9.344468079E0,1.369771545E1,1.658421295E1
1.953402358E1,1.789229279E0,-1.305659866E1,1.107801315E1,1.721622739E1
1.954394458E1,3.575764160E0,-1.801982758E1,9.201515350E0,2.054673113E1
1.955386558E1,6.221961365E0,-2.601185806E1,6.672973480E0,2.756552445E1
1.956378658E1,4.857249298E0,-3.149854843E1,5.558690643E0,3.235197777E1
1.957370658E1,2.164049835E0,-2.953074051E1,6.170169067E0,3.024597053E1
1.958362758E1,-1.347198486E-3,-2.385798706E1,6.766229553E0,2.479889939E1
1.959354858E1,1.219963074E-1,-2.188254501E1,9.342372437E0,2.379370888E1
1.960346958E1,3.900888062E-1,-2.210827560E1,1.285661453E1,2.557773557E1
1.961339058E1,-6.451583862E-1,-2.375619873E1,1.071756271E1,2.606989371E1
1.962331058E1,-2.219284973E0,-2.660357758E1,1.306543030E1,2.972172664E1
1.963323158E1,-3.513643341E0,-2.860207169E1,1.304103104E1,3.163056567E1
1.964315258E1,-3.229384460E0,-2.832320160E1,1.149235153E1,3.073608330E1
1.965307358E1,-2.690355377E0,-2.548225937E1,1.055425232E1,2.771237624E1
1.966299458E1,-1.981130219E0,-2.295102310E1,9.502689056E0,2.491937876E1
1.967291458E1,-1.359772339E0,-2.065883972E1,8.410260773E0,2.234656854E1
1.968283558E1,-6.119274902E-1,-1.846709747E1,7.282655640E0,1.986064494E1
1.969275658E1,4.058061218E-1,-1.650497772E1,6.353687439E0,1.769034517E1
1.970267758E1,1.425036621E0,-1.458701614E1,5.416037292E0,1.562514734E1
1.971259858E1,2.105820923E0,-1.252191055E1,4.197421417E0,1.337352131E1
1.972251858E1,2.179617462E0,-9.964927826E0,2.729723511E0,1.055944645E1
1.973243958E1,2.049537964E0,-7.543862457E0,1.720671844E0,8.004447404E0
1.974236058E1,1.867217102E0,-5.272036743E0,7.601193237E-1,5.644346952E0
1.975228158E1,1.636846161E0,-3.526217194E0,2.612068176E-1,3.896370369E0
1.976220258E1,9.927355957E-1,-2.642005920E0,6.436614990E-2,2.823094445E0
1.977212258E1,2.228865051E-1,-1.961970062E0,5.987548828E-3,1.974598888E0
1.978204358E1,-3.583547974E-1,-1.209484863E0,2.781216431E-1,1.291752083E0
1.979196458E1,-8.038284302E-1,-3.118016052E-1,6.015989685E-1,1.051323787E0
1.980188558E1,-1.032253418E0,8.205935669E-1,9.136999512E-1,1.604296893E0
1.981180658E1,-1.242715759E0,2.161654816E0,8.942404175E-1,2.648916746E0
1.982172658E1,-1.550775146E0,2.987936554E0,4.011657715E-1,3.390221583E0
1.983164758E1,-1.707199860E0,3.031945038E0,-5.123844910E-1,3.517066951E0
1.984156858E1,-1.728904724E0,2.965483246E0,-1.368154907E0,3.695274046E0
1.985148958E1,-1.824106750E0,3.200045471E0,-1.400188293E0,3.940581646E0
1.986140958E1,-1.864672394E0,3.534599762E0,-2.101629639E-1,4.001820471E0
1.987133058E1,-7.450007629E-1,2.480342102E0,1.545536041E0,3.015925187E0
1.988125158E1,1.034049683E0,-3.628454590E-1,2.232607269E0,2.487056652E0
1.989117258E1,1.633553009E0,-1.673370209E0,1.929337921E0,3.031667545E0
1.990109358E1,1.755100250E0,-2.128872986E0,1.537752228E0,3.158664115E0
1.991101358E1,1.528920593E0,-2.297572174E0,1.113085327E0,2.975801576E0
1.992093458E1,8.463400269E-1,-2.077080688E0,7.954458618E-1,2.379766742E0
1.993085558E1,-1.202000427E-1,-1.670825500E0,6.565347290E-1,1.799206423E0
1.994077658E1,-7.324269104E-1,-1.177451477E0,6.203100586E-1,1.519087137E0
1.995069758E1,-1.194216614E0,-6.554869080E-1,5.721102905E-1,1.477540724E0
1.996061758E1,-1.703757019E0,-1.197509766E-1,8.988807678E-1,1.930055676E0
1.997053858E1,-1.919757843E0,4.096980286E-1,1.477277985E0,2.456760651E0
1.998045958E1,-1.527124329E0,4.523593140E-1,1.270857239E0,2.037600497E0
1.999038058E1,4.644841003E-1,-2.628533936E-1,2.031725006E0,2.100653205E0
2.000030158E1,2.564317474E0,-3.114722900E0,3.379073181E0,5.262637972E0
2.001022158E1,2.443368988E0,-7.018155670E0,5.747148743E0,9.394374896E0
2.002014258E1,2.742746429E0,-9.554331665E0,5.750441895E0,1.148370557E1
2.003006358E1,2.817141724E0,-1.119866226E1,3.647015991E0,1.210979148E1
2.003998462E1,2.181264038E0,-1.431024170E1,9.087751923E0,1.709175723E1
2.004990562E1,3.466790771E-1,-1.882215912E1,1.490600281E1,2.401213818E1
2.005982562E1,-1.095721436E0,-2.421379715E1,1.028975235E1,2.633225363E1
2.006974662E1,1.141825562E0,-3.294678680E1,6.555467834E0,3.361203185E1
2.007966762E1,3.080444183E0,-3.675441879E1,7.657925262E0,3.766988527E1
2.008958862E1,3.174897766E-1,-2.808205307E1,8.607700195E0,2.937337242E1
2.009950962E1,-3.504212952E-1,-2.154769135E1,1.018407211E1,2.383571107E1
2.010942962E1,-7.641609192E-1,-2.144560364E1,1.091799591E1,2.407697016E1
2.011935062E1,-1.602567444E0,-2.249522095E1,1.174607391E1,2.542780840E1
2.012927162E1,-6.012995911E-1,-2.488155853E1,1.099239120E1,2.720820061E1
2.013919262E1,1.672023010E-1,-2.699396576E1,1.021520737E1,2.886265070E1
2.014911262E1,-3.095562744E-1,-2.546983521E1,8.791068878E0,2.694607991E1
2.015903362E1,-6.286926270E-1,-2.362866394E1,8.864116974E0,2.524443669E1
2.016895462E1,-7.620652771E-1,-2.181847824E1,8.839568024E0,2.355344347E1
2.017887562E1,-3.308120728E-1,-1.897768570E1,7.861052856E0,2.054405372E1
2.018879662E1,6.774911499E-1,-1.597957031E1,6.417754211E0,1.723349154E1
2.019871662E1,1.649420013E0,-1.365146164E1,4.969964905E0,1.462133860E1
2.020863762E1,2.215692444E0,-1.158650574E1,3.580105133E0,1.232775572E1
2.021855862E1,2.709216156E0,-9.539961548E0,2.538870392E0,1.023702014E1
2.022847962E1,2.844983826E0,-7.469467163E0,1.508413239E0,8.134013964E0
2.023840062E1,2.564018097E0,-5.198389893E0,8.053253174E-2,5.796889836E0
2.024832062E1,1.841919708E0,-3.277135162E0,-5.483097839E-1,3.799069189E0
2.025824162E1,1.122815094E0,-1.919608154E0,-1.249900818E-1,2.227382258E0
2.026816262E1,6.500981140E-1,-7.488926697E-1,3.671864319E-1,1.057494049E0
2.027808362E1,4.749623108E-1,8.496331787E-1,8.614585876E-1,1.299837156E0
2.028800462E1,6.878196716E-1,2.559078369E0,1.792223053E0,3.199068844E0
2.029792462E1,5.465135193E-1,3.815864868E0,2.666105804E0,4.686962970E0
2.030784562E1,-2.553689575E-1,4.165088654E0,2.131866760E0,4.685939893E0
2.031776662E1,-1.019380188E0,4.039948883E0,7.084767151E-1,4.226376959E0
2.032768762E1,-1.889221344E0,4.030967560E0,-7.843688965E-1,4.520297703E0
2.033760862E1,-2.615660706E0,3.952979736E0,-1.462458801E0,4.960495486E0
2.034752862E1,-2.892584839E0,3.506757660E0,-1.354832611E0,4.743413090E0
2.035744962E1,-1.741179199E0,1.519041138E0,-1.289568329E0,2.646162780E0
2.036737062E1,-8.038284302E-2,-4.207749939E-1,-1.373094635E0,1.438367781E0
2.037729162E1,3.909869385E-1,-1.201701050E0,-1.107846222E0,1.680559267E0
2.038721162E1,4.376898193E-1,-1.629062347E0,-5.424719238E-1,1.771917689E0
2.039713262E1,3.829037476E-1,-1.898651733E0,2.950364685E-1,1.959219284E0
2.040705362E1,2.529739380E-1,-2.084116058E0,1.299597473E0,2.469106954E0
2.041697462E1,3.995191956E-1,-1.974693604E0,2.042053528E0,2.868625634E0
2.042689562E1,6.069877625E-1,-1.698068848E0,2.370320892E0,2.978303727E0
2.043681562E1,2.237846375E-1,-1.247356110E0,2.268831940E0,2.598764168E0
2.044673662E1,-5.110372925E-1,-5.863307190E-1,2.245779877E0,2.376651022E0
2.045665762E1,-9.889933777E-1,4.041595459E-3,2.535726929E0,2.721770617E0
2.046657862E1,-1.538500671E0,5.140310669E-1,2.978805542E0,3.391827636E0
2.047649962E1,-1.763931885E0,1.957928467E-1,3.885021057E0,4.271203478E0
2.048641962E1,3.525169373E-1,-1.183588715E0,3.197949829E0,3.428123911E0
2.049634062E1,4.265679474E0,-3.653901672E0,1.353485413E0,5.777451131E0
2.050626162E1,5.142855377E0,-6.938072205E0,2.366578674E-1,8.639549427E0
2.051618262E1,4.608316956E0,-8.614136810E0,-1.781595154E0,9.930459176E0
2.052610362E1,4.296665039E0,-1.067759583E1,3.206332397E0,1.194792662E1
2.053602362E1,4.771627350E0,-1.478774872E1,1.241907440E1,1.989169044E1
2.054594462E1,3.439846802E0,-1.863609604E1,1.101544327E1,2.191977673E1
2.055586562E1,-1.076710968E0,-2.169004532E1,1.007270370E1,2.393902112E1
2.056578662E1,-2.189646606E0,-2.594809067E1,1.234243378E1,2.881724541E1
2.057570762E1,1.222956848E-1,-3.034774155E1,9.540709991E0,3.181234855E1
2.058562762E1,-1.673370209E0,-2.479399063E1,7.032525787E0,2.582631523E1
2.059554862E1,-3.953129425E0,-1.839300156E1,1.017898270E1,2.139021803E1
2.060546962E1,-3.489842834E0,-1.942555435E1,1.191133026E1,2.305235245E1
2.061539062E1,-2.599494324E0,-2.228775238E1,1.367511246E1,2.627755654E1
2.062531162E1,-1.437610474E0,-2.628728531E1,1.413899780E1,2.988309475E1
2.063523162E1,-1.381327515E0,-2.987936554E1,1.219454132E1,3.230156945E1
2.064515262E1,-1.868414612E0,-2.998744080E1,1.080902252E1,3.193074610E1
2.065507362E1,-1.721719666E0,-2.626812515E1,9.723479919E0,2.806287190E1
2.066499462E1,-6.168672180E-1,-2.206187210E1,9.543404388E0,2.404544225E1
2.067491562E1,6.773414612E-1,-1.957838654E1,9.243128815E0,2.166119667E1
2.068483562E1,1.816322937E0,-1.861588806E1,7.791597290E0,2.026226309E1
2.069475662E1,2.927013245E0,-1.784573959E1,6.293512573E0,1.914800587E1
2.070467762E1,3.747606812E0,-1.640109375E1,5.171595612E0,1.760073391E1
2.071459862E1,4.027824097E0,-1.420590866E1,4.259242859E0,1.536790023E1
2.072451962E1,3.760779419E0,-1.169488037E1,3.203787689E0,1.269558759E1
2.073443962E1,3.110531616E0,-9.167985077E0,1.989812164E0,9.883658723E0
2.074436062E1,2.463427277E0,-6.890620880E0,8.649014282E-1,7.368662331E0
2.075428162E1,1.700763245E0,-4.576283569E0,1.736389160E-2,4.882137690E0
2.076420262E1,1.090182953E0,-2.965483246E0,1.496887207E-3,3.159524014E0
2.077412262E1,1.586700439E-1,-1.763482819E0,1.496887207E-2,1.770669902E0
2.078404362E1,-6.956034851E-1,-6.256988525E-1,1.868115234E-1,9.540764161E-1
2.079396462E1,-1.273102570E0,4.382885742E-1,1.064286804E0,1.716273122E0
2.080388562E1,-1.316661987E0,1.780247955E0,1.991758118E0,2.978251496E0
2.081380662E1,-1.122665405E0,2.910846863E0,2.479443970E0,3.985103445E0
2.082372662E1,-1.098415833E0,2.938838654E0,1.948198700E0,3.693070287E0
2.083364762E1,-1.205892334E0,2.789000244E0,8.373587036E-1,3.151803973E0
2.084356862E1,-1.404229889E0,2.966231689E0,-3.782633972E-1,3.303554936E0
2.085348962E1,-1.493294678E0,3.116070099E0,-1.242416382E0,3.671977713E0
2.086341062E1,-1.479373627E0,3.243455200E0,-1.404379578E0,3.831557120E0
2.087333062E1,-1.407822418E0,3.396586761E0,-9.193881226E-1,3.789992099E0
2.088325162E1,-9.463320923E-1,3.128793640E0,-2.576142883E-1,3.278911282E0
2.089317262E1,5.944139099E-1,6.149212646E-1,3.704795837E-1,9.320467692E-1
2.090309362E1,8.381071472E-1,-1.140178986E0,8.095166016E-1,1.630260359E0
2.091301462E1,4.492158508E-1,-1.801204376E0,8.027806091E-1,2.022520406E0
2.092293462E1,4.052073669E-1,-2.110760651E0,8.315208435E-1,2.304545605E0
2.093285562E1,4.839436340E-1,-2.353555756E0,1.055006104E0,2.624207312E0
2.094277662E1,5.842350769E-1,-2.463576965E0,1.341360626E0,2.865273184E0
2.095269762E1,6.905140686E-1,-2.001637573E0,1.382824402E0,2.528945626E0
2.096261762E1,-5.807922363E-2,-1.011296997E0,1.282233582E0,1.634080099E0
2.097253862E1,-9.708810425E-1,-1.773811340E-1,1.628912659E0,1.904581454E0
2.098245962E1,-1.539398804E0,2.671943665E-1,2.696193237E0,3.116183480E0
2.099238062E1,-1.886377258E0,3.700305176E-1,3.223546600E0,3.753211216E0
2.100230162E1,-1.357077942E0,-1.423539734E-1,2.535577240E0,2.879423056E0
2.101222162E1,-1.995350647E-1,-1.269060974E0,3.216660919E0,3.463702855E0
2.102214262E1,1.555265808E0,-3.946543121E0,4.813240814E0,6.415710520E0
2.103206362E1,4.095333710E0,-7.664361877E0,6.116879883E0,1.062687257E1
2.104198496E1,6.067183228E0,-1.061966629E1,5.492677917E0,1.340736869E1
2.105190596E1,5.876180420E0,-1.421219559E1,7.037764893E0,1.691289846E1
2.106182596E1,2.397713928E0,-1.801638474E1,8.993298340E0,2.027852475E1
2.107174696E1,-3.219055939E0,-2.083696930E1,4.356091461E0,2.152944829E1
2.108166796E1,-5.202281799E0,-2.288276505E1,6.081703033E0,2.424194266E1
2.109158896E1,-3.450025635E0,-2.614523071E1,1.069031937E1,2.845625931E1
2.110150996E1,2.831212463E0,-3.192291595E1,8.512049103E0,3.315936228E1
2.111142996E1,4.780159607E0,-2.979404297E1,6.960824890E0,3.096753147E1
2.112135096E1,4.575984192E-1,-2.502481064E1,1.035067566E1,2.708481180E1
2.113127196E1,2.149530029E-1,-2.331162323E1,1.073313034E1,2.566472422E1
2.114119296E1,1.621727600E0,-2.373150009E1,1.117067047E1,2.627923088E1
2.115111396E1,2.519261169E0,-2.587878479E1,1.111378876E1,2.827674804E1
2.116103396E1,1.091230774E0,-2.699785767E1,9.626481628E0,2.868351882E1
2.117095496E1,-1.675465851E0,-2.782803131E1,8.768465881E0,2.922486110E1
2.118087596E1,-3.121907959E0,-2.551189774E1,8.823701019E0,2.717463772E1
2.119079696E1,-1.672472076E0,-2.222054214E1,8.110583954E0,2.371352416E1
2.120071796E1,7.137158203E-1,-1.931448532E1,6.367009735E0,2.034938688E1
2.121063796E1,2.338437195E0,-1.637280258E1,5.337001648E0,1.737873814E1
2.122055896E1,2.968327332E0,-1.375160339E1,4.430636444E0,1.474951194E1
2.123047996E1,2.978655853E0,-1.109956833E1,3.254532166E0,1.194423658E1
2.124040096E1,2.868784332E0,-8.533604279E0,2.183659058E0,9.263945834E0
2.125032196E1,2.458637238E0,-6.354286194E0,1.519490204E0,6.980737825E0
2.126024196E1,1.592238922E0,-4.384232941E0,1.073567505E0,4.786362967E0
2.127016296E1,6.706054688E-1,-2.805316315E0,1.179696808E0,3.116279172E0
2.128008396E1,-2.752775574E-1,-1.564247131E0,1.553768921E0,2.221901141E0
2.129000496E1,-9.895921326E-1,-5.110372925E-1,2.013912048E0,2.301367733E0
2.129992496E1,-1.668430481E0,6.942562866E-1,2.503244476E0,3.087375094E0
2.130984596E1,-1.886976013E0,2.442620544E0,2.916235657E0,4.246351846E0
2.131976696E1,-2.084864502E0,3.434308319E0,2.536475372E0,4.751298868E0
2.132968796E1,-2.226170654E0,3.472628632E0,1.512604523E0,4.393513154E0
2.133960896E1,-2.251468048E0,3.710783386E0,3.489244080E-1,4.354396623E0
2.134952896E1,-2.113155670E0,4.110302582E0,-4.357438660E-1,4.642185575E0
2.135944996E1,-1.493294678E0,4.385879517E0,-4.394860840E-1,4.653924811E0
2.136937096E1,4.092489624E-1,3.149899750E0,1.769320679E-1,3.181298179E0
2.137929196E1,1.974394226E0,-1.387614441E-1,1.179098053E0,2.303857530E0
2.138921296E1,2.069147186E0,-1.712289276E0,1.653760986E0,3.154081490E0
2.139913296E1,1.713636475E0,-2.311493225E0,1.632804565E0,3.308413766E0
2.140905396E1,5.189707947E-1,-2.080822906E0,9.002279663E-1,2.325847167E0
2.141897496E1,-8.732839966E-1,-1.441203003E0,-6.810836792E-2,1.686514092E0
2.142889596E1,-1.516496429E0,-4.673281860E-1,-5.962101746E-1,1.695176577E0
2.143881696E1,-1.369801483E0,1.363664246E-1,-1.272054749E0,1.874319927E0
2.144873696E1,-9.717791748E-1,-5.508544922E-2,-1.613045654E0,1.883960046E0
2.145865796E1,-7.337741089E-1,-5.578898621E-1,-1.431173859E0,1.702329038E0
2.146857896E1,-9.196875000E-1,-1.059796143E-1,-9.493258667E-1,1.326000142E0
2.147849996E1,-9.966275024E-1,1.381626892E-1,-6.406677246E-2,1.008196339E0
2.148841996E1,-7.767347717E-1,-3.706292725E-1,1.182840271E0,1.462803497E0
2.149834096E1,-4.535568237E-1,-8.601113892E-1,2.343077545E0,2.536832233E0
2.150826196E1,5.688171387E-3,-1.233884125E0,2.345322876E0,2.650102221E0
2.151818296E1,7.731422424E-1,-2.763702850E0,3.066972198E0,4.200252473E0
2.152810396E1,1.135538635E0,-5.808820496E0,6.551426239E0,8.829101274E0
2.153802396E1,3.118315430E0,-8.534203033E0,7.450756073E0,1.175033100E1
2.154794496E1,4.398603058E0,-9.964927826E0,4.453838196E0,1.176792973E1
2.155786596E1,4.551584930E0,-1.404738831E1,7.525750122E0,1.657356203E1
2.156778696E1,3.947441254E0,-2.352762405E1,1.034214340E1,2.600175602E1
2.157770796E1,-8.967851257E-1,-2.778417252E1,2.440225525E0,2.790554007E1
2.158762796E1,-5.271737366E0,-2.851824600E1,3.815864868E0,2.925136569E1
2.159754896E1,-4.214785309E0,-3.076522339E1,9.861343231E0,3.258081453E1
2.160746996E1,9.050180054E-1,-3.098496643E1,1.039558228E1,3.269488237E1
2.161739096E1,1.719474335E0,-2.881867126E1,8.413553925E0,3.007092109E1
2.162731196E1,-7.704478455E-1,-2.640359344E1,8.590785370E0,2.777669761E1
2.163723196E1,-1.815873871E0,-2.585797806E1,9.568402405E0,2.763126403E1
2.164715296E1,-2.048789520E0,-2.589899277E1,8.699908447E0,2.739787897E1
2.165707396E1,-2.226919098E0,-2.520787994E1,7.542664948E0,2.640621469E1
2.166699496E1,-1.515448608E0,-2.455763214E1,6.815776520E0,2.553093595E1
2.167691596E1,-3.767665100E-1,-2.296045349E1,6.379882965E0,2.383332298E1
2.168683596E1,1.061442719E0,-2.070180038E1,6.275849304E0,2.165819670E1
2.169675696E1,2.361489258E0,-1.872081985E1,6.150260468E0,1.984619438E1
2.170667796E1,3.039728851E0,-1.672891205E1,5.410049744E0,1.784278812E1
2.171659896E1,3.215613098E0,-1.444705719E1,4.109554138E0,1.536053594E1
2.172651996E1,2.751128998E0,-1.312545547E1,3.208727417E0,1.378920679E1
2.173643996E1,1.951491852E0,-1.134041748E1,2.353406067E0,1.174529307E1
2.174636096E1,9.803114319E-1,-9.315727844E0,1.528172150E0,9.491001311E0
2.175628196E1,-2.406994629E-1,-7.471113739E0,1.135388947E0,7.560726473E0
2.176620296E1,-8.894503784E-1,-5.571414185E0,1.147813110E0,5.757538791E0
2.177612396E1,-1.105151825E0,-3.808679810E0,1.557511139E0,4.260662319E0
2.178604396E1,-1.118773499E0,-2.242636414E0,2.184407501E0,3.324561378E0
2.179596496E1,-1.520837402E0,-7.583230591E-1,2.442620544E0,2.975633612E0
2.180588596E1,-1.846110992E0,9.448352051E-1,2.447260895E0,3.207791335E0
2.181580696E1,-1.832189941E0,2.923420715E0,2.434387665E0,4.222505413E0
2.182572696E1,-1.771116943E0,4.252806244E0,2.180066528E0,5.096656379E0
2.183564796E1,-1.830393677E0,4.470004578E0,1.850152588E0,5.172460395E0
2.184556896E1,-1.869462433E0,4.540507965E0,1.332828369E0,5.087979347E0
2.185548996E1,-1.681752777E0,4.714296570E0,6.954537964E-1,5.053369226E0
2.186541096E1,-7.071295166E-1,4.553530884E0,7.694000244E-1,4.671900262E0
2.187533096E1,7.696994019E-1,1.454525299E0,7.408094788E-1,1.804682714E0
2.188525196E1,8.806187439E-1,-8.533753967E-1,3.189866638E-1,1.267079884E0
2.189517296E1,9.241781616E-1,-1.719174957E0,-1.513352966E-1,1.957695119E0
2.190509396E1,1.035995636E0,-2.264790344E0,-4.182302856E-1,2.525367069E0
2.191501496E1,8.852590942E-1,-2.378553772E0,-2.619552612E-1,2.551435335E0
2.192493496E1,6.068380737E-1,-2.245181122E0,-5.523513794E-2,2.326401005E0
2.193485596E1,6.607260132E-1,-1.646575928E0,-3.507206726E-1,1.808528723E0
2.194477696E1,8.759783936E-1,-7.574249268E-1,-7.006929016E-1,1.353514392E0
2.195469796E1,9.871971130E-1,-4.083508301E-1,-5.010081482E-1,1.179965129E0
2.196461896E1,5.764512634E-1,-3.116519165E-1,1.404080200E-1,6.701771320E-1
2.197453896E1,-3.924838257E-1,-1.061293030E-1,1.192719727E0,1.260114014E0
2.198445996E1,-1.111588440E0,-3.582051086E-1,2.879262543E0,3.107103563E0
2.199438096E1,-1.645079041E0,-1.297501831E0,4.403991852E0,4.876980652E0
2.200430196E1,-1.304686890E0,-2.195634155E0,4.177961884E0,4.896772685E0
2.201422296E1,2.194436646E-1,-2.993624725E0,2.413730621E0,3.851758044E0
2.202414296E1,1.547631683E0,-4.909340973E0,1.239123230E0,5.294546156E0
2.203406396E1,2.751428375E0,-7.514224091E0,1.886377258E0,8.221456133E0
2.204398546E1,4.301604767E0,-1.136197266E1,7.648943939E0,1.435634249E1
2.205390646E1,5.603148193E0,-1.874596756E1,1.432161804E1,2.424696502E1
2.206382746E1,4.054468689E0,-2.622007507E1,9.877958679E0,2.831086577E1
2.207374746E1,-1.367556152E0,-2.763268753E1,1.935475159E0,2.773412508E1
2.208366846E1,-4.713248749E0,-2.956546829E1,6.168971558E0,3.056775816E1
2.209358946E1,-2.173929291E0,-2.962564316E1,9.362131348E0,3.114569319E1
2.210351046E1,7.664062500E-1,-2.769600586E1,9.179810486E0,2.918775496E1
2.211343046E1,1.055754547E0,-2.796454742E1,7.816894684E0,2.905571154E1
2.212335146E1,4.311035156E-2,-2.971994705E1,8.507857819E0,3.091376321E1
2.213327246E1,-5.569917297E-1,-2.956546829E1,9.210945740E0,3.097206284E1
2.214319346E1,-4.661306763E-1,-2.778372345E1,7.255412292E0,2.871921959E1
2.215311446E1,4.427792358E-1,-2.592698456E1,7.018604736E0,2.686383059E1
2.216303446E1,1.015937347E0,-2.380694321E1,6.526727600E0,2.470629164E1
2.217295546E1,1.847757568E0,-2.148572021E1,5.577551422E0,2.227463717E1
2.218287646E1,3.339854736E0,-1.958886475E1,4.859195251E0,2.045702887E1
2.219279746E1,3.824247437E0,-1.681228867E1,3.928879852E0,1.768372177E1
2.220271846E1,4.145778809E0,-1.429197968E1,3.061134338E0,1.519271893E1
2.221263846E1,4.212090912E0,-1.198886902E1,2.058369598E0,1.287290082E1
2.222255946E1,3.773502960E0,-9.313332825E0,1.243464203E0,1.012539857E1
2.223248046E1,2.651286621E0,-6.856791229E0,9.699829102E-1,7.415239278E0
2.224240146E1,8.084687805E-1,-5.035977631E0,1.085392914E0,5.214668757E0
2.225232246E1,-3.251239014E-1,-3.408262482E0,1.122216339E0,3.602961033E0
2.226224246E1,-9.895921326E-1,-2.133513336E0,1.348395996E0,2.710967264E0
2.227216346E1,-1.497186584E0,-8.123606873E-1,1.590292969E0,2.330349605E0
2.228208446E1,-1.244212646E0,8.005352783E-1,1.716779938E0,2.266330778E0
2.229200546E1,-7.444020081E-1,2.834804993E0,1.476379852E0,3.281760376E0
2.230192646E1,-1.118623810E0,4.724774780E0,1.334924011E0,5.035557374E0
2.231184646E1,-1.016386414E0,5.141059113E0,1.761237488E0,5.528606301E0
2.232176746E1,-8.005352783E-1,5.092260590E0,1.992506561E0,5.526486862E0
2.233168846E1,-6.508465576E-1,4.915927277E0,2.265688477E0,5.451906685E0
2.234160946E1,1.161584473E-1,2.467618561E0,2.112556915E0,3.250466254E0
2.235153046E1,7.722441101E-1,-4.843927002E-1,1.745520172E0,1.969222670E0
2.236145046E1,8.262817383E-2,-1.265618134E0,1.130748596E0,1.699178938E0
2.237137146E1,-8.334667969E-1,-1.108295288E0,2.552192688E-1,1.410007880E0
2.238129246E1,-1.232686615E0,-6.179150391E-1,-8.644523621E-1,1.627456043E0
2.239121346E1,-1.159189453E0,-2.679428101E-2,-1.653311920E0,2.019375752E0
2.240113346E1,-9.711804199E-1,1.065783691E-1,-1.809287567E0,2.056227579E0
2.241105446E1,-7.599696350E-1,-1.169068909E-1,-1.304986267E0,1.514665054E0
2.242097546E1,-4.608915710E-1,-5.037025452E-1,-5.502557373E-1,8.768800777E-1
2.243089646E1,-2.475851440E-1,-7.511380005E-1,6.945556641E-2,7.939337347E-1
2.244081746E1,-1.913021851E-1,-8.125103760E-1,5.569917297E-1,1.003498592E0
2.245073746E1,-1.571731567E-1,-8.411009216E-1,1.021326141E0,1.332389301E0
2.246065846E1,-1.704954529E-1,-6.339317322E-1,1.132095795E0,1.308655428E0
2.247057946E1,-8.741821289E-2,-5.222639465E-1,1.091829529E0,1.213463347E0
2.248050046E1,-1.122665405E-2,-7.649093628E-1,1.547332306E0,1.726108234E0
2.249042146E1,-6.586303711E-3,-6.725514221E-1,2.264790344E0,2.362550338E0
2.250034146E1,1.060245209E0,-1.042581940E0,2.805166626E0,3.174910519E0
2.251026246E1,2.401755524E0,-5.139562225E0,5.463039551E0,7.875806663E0
2.252018346E1,3.792064362E0,-1.060679306E1,7.178771667E0,1.335734157E1
2.253010446E1,5.919889526E0,-1.516331772E1,6.885681152E0,1.767438545E1
2.254002546E1,5.804329834E0,-2.047577042E1,9.382189636E0,2.325882416E1
2.254994546E1,1.795665894E0,-2.445135315E1,6.362968140E0,2.532943841E1
2.255986646E1,-2.014510803E0,-2.271586212E1,-2.109114075E-1,2.280598889E1
2.256978746E1,-2.495610352E0,-2.081975510E1,4.086801453E0,2.136333821E1
2.257970846E1,-2.481240234E0,-1.940459793E1,8.583300934E0,2.136277203E1
2.258962946E1,-4.974156189E-1,-1.900912033E1,7.353458405E0,2.038792360E1
2.259954946E1,8.090675354E-1,-2.171609116E1,9.207353210E0,2.360124061E1
2.260947046E1,-5.745053101E-1,-2.754931091E1,1.244332397E1,3.023459773E1
2.261939146E1,-3.345243530E0,-3.192456253E1,1.346165634E1,3.480782295E1
2.262931246E1,-3.076552277E0,-3.104783569E1,1.089569229E1,3.304768351E1
2.263923246E1,-8.123606873E-1,-2.583163284E1,8.274792480E0,2.713679008E1
2.264915346E1,1.274150391E0,-2.229074615E1,7.753875732E0,2.363521551E1
2.265907446E1,1.465751953E0,-2.129726212E1,7.230414276E0,2.253887071E1
2.266899546E1,7.577243042E-1,-2.073967163E1,7.349865875E0,2.201655409E1
2.267891646E1,6.994953918E-1,-2.096570160E1,7.364984436E0,2.223269964E1
2.268883646E1,1.000220032E0,-2.041260178E1,6.516997833E0,2.145101425E1
2.269875746E1,1.864073639E0,-1.897963165E1,6.295308838E0,2.008312978E1
2.270867846E1,2.581232300E0,-1.731030304E1,5.606591034E0,1.837779134E1
2.271859946E1,2.619402924E0,-1.519086044E1,4.520299988E0,1.606414096E1
2.272852046E1,2.052232361E0,-1.312335983E1,3.271746368E0,1.367985948E1
2.273844046E1,1.757644958E0,-1.041249710E1,2.255359955E0,1.079796556E1
2.274836146E1,1.324745178E0,-8.574768677E0,1.944755859E0,8.891776144E0
2.275828246E1,6.830296326E-1,-6.727909241E0,1.513652344E0,6.929822195E0
2.276820346E1,2.185455322E-2,-4.650080109E0,9.410929871E-1,4.744404984E0
2.277812446E1,-4.221221924E-2,-2.951861572E0,1.023122406E0,3.124427639E0
2.278804446E1,-9.508227539E-1,-1.088087311E0,1.139131165E0,1.840004814E0
2.279796546E1,-1.677411804E0,4.526586914E-1,1.397344208E0,2.229614560E0
2.280788646E1,-1.536105652E0,2.058968353E0,1.840722198E0,3.160257816E0
2.281780746E1,-1.185684357E0,3.441942444E0,2.163151703E0,4.234624006E0
2.282772846E1,-1.380878448E0,3.772155762E0,1.694027252E0,4.359554187E0
2.283764846E1,-1.813329163E0,3.954626312E0,3.579057312E-1,4.365240937E0
2.284756946E1,-2.054777069E0,4.070335693E0,-6.960525513E-1,4.612399659E0
2.285749046E1,-1.755399628E0,3.992198181E0,-1.453477478E0,4.596919724E0
2.286741146E1,-1.189875641E0,3.854634247E0,-1.795366516E0,4.415580386E0
2.287733246E1,-7.304809570E-2,3.002905426E0,-1.472338257E0,3.345228985E0
2.288725246E1,1.487905884E0,3.531156921E-1,-7.327262878E-1,1.695712954E0
2.289717346E1,1.630858612E0,-1.063688049E0,1.631607056E-2,1.947151328E0
2.290709446E1,1.382824402E0,-1.918111267E0,6.761439514E-1,2.459374880E0
2.291701546E1,1.285227356E0,-2.568808136E0,1.257834320E0,3.135718701E0
2.292693546E1,1.341510315E0,-2.905458069E0,1.843117218E0,3.693022826E0
2.293685646E1,1.317859497E0,-3.217858429E0,2.218835907E0,4.124875671E0
2.294677746E1,9.503736877E-1,-3.118016052E0,1.987716522E0,3.817885700E0
2.295669846E1,-2.863545227E-1,-1.791923676E0,9.999206543E-1,2.071914739E0
2.296661946E1,-1.191522217E0,-8.692424011E-1,3.155438232E-1,1.508269024E0
2.297653946E1,-1.311572571E0,-4.260140991E-1,2.622546387E-1,1.403740758E0
2.298646046E1,-1.103056183E0,-2.127076721E-1,7.044351196E-1,1.325973731E0
2.299638146E1,-7.354206848E-1,-2.121089172E-1,1.609153748E0,1.781911771E0
2.300630246E1,1.374142456E-1,-6.159690857E-1,2.703228607E0,2.775922458E0
2.301622346E1,1.181792450E0,-1.498533783E0,4.218826904E0,4.630414381E0
2.302614346E1,2.600242767E0,-3.301684113E0,7.858358459E0,8.911575512E0
2.303606446E1,4.900509338E0,-6.290219421E0,9.599088593E0,1.247895644E1
2.304598487E1,6.642287292E0,-8.929980011E0,7.469467163E0,1.340363619E1
2.305590587E1,3.454665985E0,-1.243673767E1,6.051765289E0,1.425591190E1
2.306582687E1,-3.119512939E0,-1.737197479E1,5.702541504E0,1.854820338E1
2.307574687E1,-7.390880585E0,-2.208971420E1,9.097930756E0,2.500705767E1
2.308566787E1,-7.624993744E0,-2.474159958E1,5.868845673E0,2.654676306E1
2.309558888E1,-4.169878693E0,-2.882286255E1,1.044767395E1,3.094025185E1
2.310550987E1,-7.484436035E-1,-3.269860291E1,8.191266174E0,3.371728995E1
2.311543087E1,6.134243774E-1,-2.802876389E1,7.250771942E0,2.895792790E1
2.312535087E1,9.955796814E-1,-2.542477890E1,1.085213287E1,2.766187537E1
2.313527187E1,-8.970845032E-1,-2.570155334E1,1.030606842E1,2.770540834E1
2.314519287E1,-7.548802185E-1,-2.721086472E1,1.069196594E1,2.924583968E1
2.315511387E1,1.146615601E-1,-2.792218552E1,1.053269714E1,2.984291039E1
2.316503487E1,1.197509766E-3,-2.955633728E1,8.144114227E0,3.065784845E1
2.317495487E1,-1.022523651E0,-2.638952271E1,7.764952698E0,2.752720388E1
2.318487587E1,-1.250050507E0,-2.250165756E1,8.743767242E0,2.417313974E1
2.319479688E1,-2.977308655E-1,-1.955862762E1,7.632029114E0,2.099705757E1
2.320471787E1,1.135688324E0,-1.713097595E1,5.946234741E0,1.816914507E1
2.321463787E1,2.276166687E0,-1.502320908E1,4.621788940E0,1.588202376E1
2.322455887E1,2.674787750E0,-1.325658279E1,3.729793854E0,1.402864352E1
2.323447987E1,2.678979034E0,-1.088192093E1,2.287842407E0,1.143797861E1
2.324440087E1,2.487377472E0,-8.361911316E0,1.139430542E0,8.798119657E0
2.325432187E1,2.131118317E0,-6.029461670E0,6.776408386E-1,6.430806358E0
2.326424187E1,1.272952881E0,-3.990701294E0,4.748126221E-1,4.215631967E0
2.327416287E1,2.502795410E-1,-2.785407715E0,5.939648438E-1,2.859008608E0
2.328408387E1,-2.401007080E-1,-1.797462158E0,9.464817810E-1,2.045567482E0
2.329400488E1,-6.819818115E-1,-6.867718506E-1,1.469943237E0,1.759968149E0
2.330392587E1,-1.031954041E0,6.735992432E-1,1.635049896E0,2.047450426E0
2.331384587E1,-8.803193665E-1,2.109114075E0,1.573078766E0,2.774509177E0
2.332376687E1,-8.358618164E-1,2.804717560E0,1.465302887E0,3.272952508E0
2.333368787E1,-9.698332214E-1,2.868335266E0,1.327589264E0,3.306118106E0
2.334360887E1,-1.259929962E0,3.084036713E0,7.890092468E-1,3.423629879E0
2.335352987E1,-1.640289001E0,3.444936218E0,5.478607178E-2,3.815905537E0
2.336344987E1,-1.842069397E0,3.685336304E0,-3.239263916E-1,4.132777715E0
2.337337087E1,-1.628912659E0,3.310815125E0,-3.465293884E-1,3.706067438E0
2.338329187E1,3.050656128E-1,8.101153564E-1,-6.451583862E-2,8.680519640E-1
2.339321288E1,1.410067749E0,-1.113684082E0,2.293231201E-1,1.811400669E0
2.340313387E1,1.182241516E0,-1.845362549E0,3.379971313E-1,2.217498591E0
2.341305387E1,7.250921631E-1,-2.064207458E0,5.258564758E-1,2.250163574E0
2.342297487E1,-7.798782349E-2,-1.708397369E0,6.316864014E-1,1.823110359E0
2.343289587E1,-1.379231873E0,-8.878038025E-1,5.026547241E-1,1.715557612E0
2.344281687E1,-1.947300568E0,-3.847000122E-2,2.127076721E-1,1.959261084E0
2.345273687E1,-1.697170715E0,3.128494263E-1,-4.123924255E-1,1.774353604E0
2.346265787E1,-1.052012329E0,4.071533203E-1,-8.643026733E-1,1.421099179E0
2.347257887E1,-3.818559265E-1,5.718109131E-1,-8.416996765E-1,1.086848662E0
2.348249987E1,2.734812927E-1,7.351213074E-1,-4.412823486E-1,8.999585908E-1
2.349242088E1,3.588038635E-1,7.432044983E-1,5.845344543E-1,1.011322731E0
2.350234087E1,-1.841171265E-2,3.182382202E-1,2.221979370E0,2.244728687E0
2.351226187E1,-4.813989258E-1,7.873626709E-2,3.800746307E0,3.831920774E0
2.352218287E1,5.450166321E-1,-9.973759460E-1,4.569697266E0,4.708920790E0
2.353210387E1,2.752925262E0,-4.004622345E0,4.460424500E0,6.596285647E0
2.354202487E1,3.019670563E0,-7.541018372E0,1.860331421E0,8.333438749E0
2.355194487E1,3.142864380E0,-9.087901611E0,-3.507206726E-1,9.622398724E0
2.356186587E1,4.057163086E0,-1.138921600E1,7.953111420E0,1.447158577E1
2.357178687E1,5.692063293E0,-1.822041046E1,1.565833832E1,2.468940058E1
2.358170787E1,4.336482239E0,-2.946667374E1,6.800807648E0,3.055062886E1
2.359162888E1,-1.719923401E0,-3.492806671E1,3.284170532E-1,3.497192929E1
2.360154887E1,-4.567152557E0,-3.356679749E1,9.560768280E0,3.519939014E1
2.361146987E1,-3.425027618E0,-2.890174850E1,1.621278534E1,3.331510602E1
2.362139087E1,-3.001558228E0,-3.005360321E1,1.837354202E1,3.535272923E1
2.363131187E1,-5.478307800E0,-3.048650299E1,1.063942520E1,3.275112349E1
2.364123287E1,-4.827161865E0,-2.663860474E1,5.760171661E0,2.767844525E1
2.365115287E1,7.092251587E-1,-2.338302475E1,1.181388290E1,2.620756906E1
2.366107387E1,3.759132843E0,-2.121732834E1,8.073311462E0,2.301052932E1
2.367099487E1,2.692301331E0,-2.096121094E1,4.899910583E0,2.169400779E1
2.368091587E1,1.724264374E0,-2.116284164E1,6.399043121E0,2.217626450E1
2.369083688E1,2.623893585E0,-2.088891129E1,7.365882568E0,2.230443136E1
2.370075687E1,3.689826965E0,-2.095537308E1,6.605463867E0,2.227946671E1
2.371067787E1,3.602259064E0,-1.985590942E1,5.667813721E0,2.096085690E1
2.372059887E1,3.063679047E0,-1.757435394E1,4.381388855E0,1.836955672E1
2.373051987E1,1.574875031E0,-1.516616180E1,3.797602844E0,1.571351274E1
2.374043987E1,3.924838257E-1,-1.265124161E1,3.385809174E0,1.310235328E1
2.375036087E1,-1.631607056E-1,-1.028511200E1,3.081941071E0,1.073818006E1
2.376028187E1,8.352630615E-2,-8.042475586E0,2.683020630E0,8.478619575E0
2.377020287E1,1.745370483E-1,-5.937852173E0,2.338886261E0,6.384272907E0
2.378012387E1,-1.466949463E-2,-3.748804321E0,2.265688477E0,4.380307444E0
2.379004387E1,-4.131408691E-1,-1.988165588E0,2.236798553E0,3.021052061E0
2.379996487E1,-8.207432556E-1,-5.614823914E-1,2.721490631E0,2.897480496E0
2.380988587E1,-1.529369659E0,1.118773499E0,2.988086243E0,3.538260178E0
2.381980687E1,-2.078876953E0,3.279530182E0,2.276615753E0,4.501113961E0
2.382972787E1,-2.529889069E0,4.514611816E0,9.949809265E-1,5.269918936E0
2.383964787E1,-2.962040405E0,4.747078400E0,-8.333171082E-1,5.657106513E0
2.384956887E1,-2.902913361E0,5.064717865E0,-1.607656860E0,6.054984196E0
2.385948987E1,-2.243983612E0,5.340594177E0,-9.605525208E-1,5.871973243E0
2.386941087E1,-1.235830078E0,5.280868378E0,1.175056458E-1,5.424818373E0
2.387933187E1,5.152285767E-1,3.912713470E0,6.129753113E-1,3.993810952E0
2.388925187E1,1.842967529E0,6.015989685E-1,1.143472137E0,2.250773014E0
2.389917287E1,1.847458191E0,-9.250762939E-1,1.304537201E0,2.443498563E0
2.390909387E1,1.673220520E0,-1.487756195E0,1.235530701E0,2.557268370E0
2.391901487E1,1.578916626E0,-1.565294952E0,6.927593994E-1,2.328742490E0
2.392893487E1,1.675016785E0,-1.395847321E0,-2.999761963E-1,2.200921782E0
2.393885587E1,1.564396820E0,-1.405876465E0,-1.125210114E0,2.385356125E0
2.394877687E1,1.120270386E0,-1.470392303E0,-1.611249390E0,2.452179410E0
2.395869787E1,3.532653809E-2,-1.265318756E0,-1.568438416E0,2.015509509E0
2.396861887E1,-1.152752838E0,-9.928852844E-1,-9.532177734E-1,1.795350778E0
2.397853888E1,-1.944755859E0,-8.181985474E-1,4.044589233E-1,2.148280996E0
2.398845987E1,-2.286345520E0,-6.333329773E-1,2.039658508E0,3.128688755E0
2.399838087E1,-2.317181396E0,-7.424560547E-2,3.550766144E0,4.240611069E0
2.400830187E1,-2.088157654E0,7.589218140E-2,4.000281372E0,4.513137829E0
2.401822287E1,-1.041534119E0,-8.330177307E-1,3.857628021E0,4.081667038E0
2.402814287E1,1.250050507E0,-3.084186401E0,4.412224731E0,5.526532286E0
2.403806387E1,3.262765045E0,-5.458997955E0,3.833977203E0,7.426013440E0
2.404798462E1,4.140689392E0,-8.390052795E0,3.247945862E0,9.903910686E0
2.405790562E1,3.671864319E0,-1.193243637E1,3.956272888E0,1.309647741E1
2.406782662E1,3.339255981E0,-1.561432983E1,8.791667633E0,1.822776307E1
2.407774662E1,1.873953094E0,-1.986414230E1,1.176328812E1,2.316183924E1
2.408766762E1,3.650907898E-1,-2.461436417E1,9.279503174E0,2.630797206E1
2.409758862E1,1.100960541E0,-3.100981476E1,1.121692429E1,3.299454676E1
2.410750962E1,1.092727661E0,-3.379372559E1,8.320447540E0,3.482010612E1
2.411743062E1,-5.947132874E-1,-2.838831619E1,8.868457947E0,2.974726419E1
2.412735062E1,-8.652008057E-2,-2.667467972E1,1.316632050E1,2.974723549E1
2.413727162E1,-1.248403931E-1,-2.690984070E1,1.316961365E1,2.995987041E1
2.414719262E1,-1.131347351E0,-2.663126999E1,1.235979767E1,2.938144119E1
2.415711362E1,-8.415499878E-1,-2.570903778E1,1.157018967E1,2.820517894E1
2.416703462E1,-2.495310974E-1,-2.423789703E1,1.034543655E1,2.635461963E1
2.417695462E1,1.166075134E-1,-2.303814194E1,1.016551071E1,2.518148505E1
2.418687562E1,-2.826123047E-1,-2.231993546E1,9.365873566E0,2.420700263E1
2.419679662E1,-7.253915405E-1,-2.087873245E1,8.816665649E0,2.267556515E1
2.420671762E1,-5.093907166E-1,-1.932586166E1,8.662635956E0,2.118465647E1
2.421663762E1,-1.466949463E-2,-1.780352737E1,7.744744720E0,1.941511970E1
2.422655862E1,5.885760498E-1,-1.572674606E1,6.271358643E0,1.694127807E1
2.423647962E1,1.120120697E0,-1.349803070E1,4.740641785E0,1.435009365E1
2.424640062E1,1.066981201E0,-1.118159775E1,3.310366058E0,1.171004272E1
2.425632162E1,8.873547363E-1,-8.732540588E0,2.424358521E0,9.106161529E0
2.426624162E1,8.572673035E-1,-6.822362823E0,1.898502045E0,7.133291788E0
2.427616262E1,6.444099426E-1,-4.760849762E0,1.439855804E0,5.015390251E0
2.428608362E1,1.326242065E-1,-3.011886749E0,1.309925995E0,3.287089455E0
2.429600462E1,-3.179388428E-1,-1.483714600E0,1.466500397E0,2.110241108E0
2.430592562E1,-6.487509155E-1,-2.381547546E-1,1.737736359E0,1.870113122E0
2.431584562E1,-8.357121277E-1,1.073417816E0,2.051034851E0,2.461175436E0
2.432576662E1,-1.116528168E0,2.605930939E0,2.143841858E0,3.554373238E0
2.433568762E1,-1.203796692E0,3.425776062E0,1.511107635E0,3.933003228E0
2.434560862E1,-1.468296661E0,3.498973846E0,5.602848816E-1,3.835704917E0
2.435552962E1,-1.497785339E0,3.707340546E0,-7.713459778E-1,4.072187307E0
2.436544962E1,-1.279838562E0,4.101321259E0,-1.521286469E0,4.557755514E0
2.437537062E1,-8.858578491E-1,4.550387421E0,-9.581575012E-1,4.733797165E0
2.438529162E1,-1.507365417E-1,4.328099670E0,2.308200073E-1,4.336870547E0
2.439521262E1,1.542542267E0,1.051712952E0,1.238374786E0,2.240336780E0
2.440513262E1,1.931134186E0,-1.393901367E0,1.436712341E0,2.781435352E0
2.441505362E1,1.368154907E0,-2.001487885E0,1.150956573E0,2.683747871E0
2.442497462E1,6.765930176E-1,-2.021396484E0,8.875044250E-1,2.309001075E0
2.443489562E1,2.757266235E-1,-1.744172974E0,4.415817261E-1,1.820208492E0
2.444481662E1,-3.938310242E-1,-1.396446075E0,-2.227368164E-1,1.467915599E0
2.445473662E1,-6.586303711E-1,-1.180744629E0,-7.385641479E-1,1.540593666E0
2.446465762E1,-7.448510742E-1,-1.340462494E0,-1.117276611E0,1.897353379E0
2.447457862E1,-9.854008484E-1,-1.218166809E0,-1.185834045E0,1.964980303E0
2.448449962E1,-1.229842529E0,-6.685098267E-1,-6.152206421E-1,1.529024027E0
2.449442062E1,-1.515448608E0,-1.196012878E-1,2.484832764E-1,1.540335318E0
2.450434062E1,-1.595083008E0,1.698966980E-1,1.137783966E0,1.966648683E0
2.451426162E1,-1.474134521E0,2.770738220E-1,2.255659332E0,2.708845052E0
2.452418262E1,-1.570833435E0,4.170327759E-1,3.095413055E0,3.496143018E0
2.453410362E1,-1.158441010E0,3.165916443E-1,3.175945587E0,3.395415470E0
2.454402462E1,1.061891785E0,-5.358856201E-1,4.371509399E0,4.530439492E0
2.455394462E1,4.055217133E0,-3.871399384E0,5.600603485E0,7.924599585E0
2.456386562E1,5.637426910E0,-8.185128937E0,6.182742920E0,1.170483780E1
2.457378662E1,6.845115509E0,-1.128697861E1,7.817343750E0,1.534152390E1
2.458370762E1,6.445296936E0,-1.445978073E1,9.261540527E0,1.834129887E1
2.459362862E1,3.231629791E0,-1.893218033E1,1.036744080E1,2.182555181E1
2.460354862E1,-1.422192535E0,-2.576187790E1,8.359965363E0,2.712168884E1
2.461346962E1,-4.260590057E0,-3.665547455E1,1.036699173E1,3.833080953E1
2.462339062E1,-6.869365082E0,-3.467898468E1,9.516909485E0,3.661136055E1
2.463331162E1,-5.337750092E0,-2.514650757E1,8.138875122E0,2.696441557E1
2.464323262E1,-1.553619232E0,-2.057651093E1,1.039962387E1,2.310754663E1
2.465315262E1,-1.624122620E-1,-2.004751099E1,9.511670380E0,2.219010924E1
2.466307362E1,-1.305884399E0,-2.195843719E1,9.198072510E0,2.384287810E1
2.467299462E1,-1.390608215E0,-2.520862839E1,1.048928741E1,2.733923713E1
2.468291562E1,-6.227050781E-2,-2.846151398E1,1.093910202E1,3.049140221E1
2.469283562E1,9.379495239E-1,-2.985346939E1,1.062340851E1,3.170120175E1
2.470275662E1,7.411088562E-1,-2.650657928E1,9.902657318E0,2.830566392E1
2.471267762E1,7.024891663E-1,-2.243744110E1,9.867031403E0,2.452122678E1
2.472259862E1,1.145867157E0,-2.024944107E1,9.449848938E0,2.237526581E1
2.473251962E1,1.278491364E0,-1.828462692E1,8.225245514E0,2.009021617E1
2.474243962E1,1.410666504E0,-1.674388092E1,6.253845062E0,1.792925281E1
2.475236062E1,1.214125214E0,-1.489537491E1,4.195325775E0,1.552246926E1
2.476228162E1,8.845106506E-1,-1.241608063E1,2.570604401E0,1.271020945E1
2.477220262E1,7.322772217E-1,-9.531728668E0,1.415606232E0,9.664058275E0
2.478212362E1,7.051835632E-1,-7.093149719E0,7.846682739E-1,7.171175712E0
2.479204362E1,4.340972900E-1,-5.231171722E0,4.718188477E-1,5.270314134E0
2.480196462E1,1.646575928E-1,-3.859124908E0,6.786886597E-1,3.921807680E0
2.481188562E1,-2.501298523E-1,-2.539169769E0,1.116827545E0,2.785184343E0
2.482180662E1,-8.086184692E-1,-1.212478638E0,1.634151764E0,2.189616465E0
2.483172762E1,-1.444047089E0,4.460723877E-2,1.850901031E0,2.347998388E0
2.484164762E1,-1.526076508E0,1.543889465E0,1.524429932E0,2.652619612E0
2.485156862E1,-1.204096069E0,2.748733978E0,1.124761047E0,3.204757907E0
2.486148962E1,-1.194066925E0,3.025209045E0,4.058061218E-1,3.277554606E0
2.487141062E1,-1.320104828E0,3.167113953E0,1.010398865E-1,3.432709805E0
2.488133062E1,-1.474134521E0,3.691024475E0,4.625381470E-2,3.974779702E0
2.489125162E1,-1.291963348E0,4.307592316E0,5.767506409E-1,4.534000679E0
2.490117262E1,-5.499563599E-1,4.775070190E0,1.361718292E0,4.995800639E0
2.491109362E1,1.445094910E0,3.094365234E0,2.062860260E0,3.989835580E0
2.492101462E1,2.429298248E0,-5.794450378E-1,2.197280731E0,3.326452937E0
2.493093462E1,1.778002625E0,-1.695973206E0,1.297651520E0,2.778761939E0
2.494085562E1,1.296004944E0,-1.814826050E0,6.471043396E-1,2.322060816E0
2.495077662E1,6.465055847E-1,-1.698817291E0,1.911524963E-1,1.827700451E0
2.496069762E1,-2.817141724E-1,-9.689350891E-1,-6.592291260E-1,1.205313703E0
2.497061862E1,-7.117698669E-1,-3.360511780E-1,-1.365011444E0,1.575691271E0
2.498053862E1,-7.939489746E-1,-3.121009827E-1,-1.451681213E0,1.683787499E0
2.499045962E1,-9.894424438E-1,-4.758604431E-1,-1.181343384E0,1.612765234E0
2.500038062E1,-1.097517700E0,-2.345622253E-1,-7.030879211E-1,1.324347826E0
2.501030162E1,-1.022523651E0,2.863545227E-1,-5.822891235E-2,1.063458573E0
2.502022262E1,-1.120869141E0,7.626640320E-1,6.481521606E-1,1.502699331E0
2.503014262E1,-1.108594666E0,6.824308777E-1,1.611698456E0,2.071778450E0
2.504006362E1,-1.072369995E0,2.836601257E-1,3.214565277E0,3.400569128E0
2.504998487E1,-4.568499756E-1,7.274871826E-2,3.895798645E0,3.923168536E0
2.505990587E1,1.974543915E0,-1.663341064E0,3.213816833E0,4.122395639E0
2.506982587E1,2.160457306E0,-5.444029083E0,3.554508362E0,6.851245005E0
2.507974687E1,1.739233246E0,-7.610174561E0,4.442761230E0,8.982083081E0
2.508966787E1,2.310445404E0,-9.635313263E0,4.730163574E0,1.097961143E1
2.509958887E1,2.759212189E0,-1.213840805E1,8.609197083E0,1.513514045E1
2.510950987E1,2.834804993E0,-1.737586670E1,1.090257797E1,2.070804359E1
2.511942987E1,1.638642426E0,-2.777189804E1,4.995561676E0,2.826515711E1
2.512935087E1,-1.999841309E0,-3.353461441E1,3.745062103E0,3.380229606E1
2.513927187E1,-3.620221710E0,-3.231330414E1,8.960067444E0,3.372741375E1
2.514919287E1,-2.106719055E0,-2.546773956E1,1.041803558E1,2.759672968E1
2.515911387E1,1.211580505E0,-2.369542511E1,1.067639832E1,2.601781273E1
2.516903387E1,1.905238037E0,-2.485431519E1,1.055829391E1,2.707110056E1
2.517895487E1,3.174897766E-1,-2.628249527E1,1.140044266E1,2.865031326E1
2.518887587E1,-7.857160950E-1,-2.713392471E1,1.086231171E1,2.923793829E1
2.519879687E1,-8.674461365E-1,-2.699695953E1,1.063074326E1,2.902759013E1
2.520871787E1,-6.727011108E-1,-2.570858871E1,1.014200958E1,2.764497095E1
2.521863787E1,-5.089416504E-1,-2.360007339E1,9.127718811E0,2.530884700E1
2.522855887E1,-1.187031555E-1,-2.249552032E1,8.856183472E0,2.417632128E1
2.523847987E1,4.803511047E-1,-2.132375702E1,8.134234772E0,2.282759571E1
2.524840087E1,1.309177551E0,-1.982133133E1,7.166646881E0,2.111776383E1
2.525832187E1,2.214644623E0,-1.794887512E1,6.258934479E0,1.913742485E1
2.526824187E1,2.439327393E0,-1.540955566E1,5.064867554E0,1.640297556E1
2.527816287E1,2.253264313E0,-1.284089722E1,3.846551056E0,1.359271115E1
2.528808387E1,1.767225037E0,-1.060439804E1,2.729573822E0,1.109174988E1
2.529800487E1,1.259929962E0,-8.531508636E0,1.360969849E0,8.730767552E0
2.530792587E1,5.098397827E-1,-6.380332031E0,3.326083374E-1,6.409305870E0
2.531784587E1,-5.508544922E-2,-4.661157074E0,1.606159973E-1,4.664248833E0
2.532776687E1,-4.001179504E-1,-3.434308319E0,4.959187317E-1,3.492921899E0
2.533768787E1,-4.602928162E-1,-2.198777618E0,1.029109955E0,2.470943097E0
2.534760887E1,-6.583309937E-1,-8.909472656E-1,1.338366852E0,1.737357924E0
2.535752887E1,-8.994795227E-1,4.803511047E-1,1.043779449E0,1.459203939E0
2.536744987E1,-9.514215088E-1,1.949396210E0,6.212081909E-1,2.256379420E0
2.537737087E1,-8.506809998E-1,2.821931763E0,5.278024292E-1,2.994249896E0
2.538729187E1,-8.711883545E-1,3.163521423E0,1.737886047E-1,3.285884877E0
2.539721287E1,-9.824070740E-1,3.446433105E0,-5.927673340E-1,3.632409382E0
2.540713287E1,-9.526190186E-1,3.732787628E0,-1.013692017E0,3.983560967E0
2.541705387E1,-6.848258972E-1,4.196822662E0,-8.723858643E-1,4.340894385E0
2.542697487E1,1.678010559E-1,4.746928711E0,-2.354603577E-1,4.755726123E0
2.543689587E1,2.241139526E0,3.060685272E0,7.885601807E-1,3.874574541E0
2.544681687E1,3.098107452E0,-1.634600830E-1,1.410666504E0,3.408074085E0
2.545673687E1,2.653232574E0,-1.361119537E0,1.100361786E0,3.178535126E0
2.546665787E1,1.852547607E0,-1.967059479E0,7.988887024E-1,2.817708074E0
2.547657887E1,1.038690033E0,-2.351011047E0,4.251159668E-1,2.605159019E0
2.548649987E1,1.669029236E-1,-2.485431519E0,1.347198486E-2,2.491065618E0
2.549642087E1,-7.834707642E-1,-2.042652283E0,3.712280273E-2,2.188066016E0
2.550634087E1,-1.319805450E0,-1.509011993E0,3.445834351E-1,2.034143890E0
2.551626187E1,-1.302890625E0,-1.071471863E0,4.312532043E-1,1.741136198E0
2.552618287E1,-1.357826385E0,-7.964936829E-1,4.442761230E-1,1.635688220E0
2.553610387E1,-1.731299744E0,-1.109193420E-1,7.839198303E-1,1.903741632E0
2.554602387E1,-2.166295166E0,8.795709229E-1,1.726809082E0,2.906604438E0
2.555594487E1,-2.063608704E0,1.264869690E0,2.340383148E0,3.366863451E0
2.556586587E1,-1.579515381E0,4.230203247E-1,3.620670776E0,3.972791450E0
2.557578687E1,-9.624984741E-2,-2.375559998E0,6.050418091E0,6.500777523E0
2.558570787E1,1.795366516E0,-6.556365967E0,4.956941986E0,8.413117702E0
2.559562787E1,3.850143585E0,-8.878337402E0,3.548071747E0,1.030714770E1
2.560554887E1,5.264103241E0,-1.111618378E1,6.604416046E0,1.396061016E1
2.561546987E1,5.409750366E0,-1.370969055E1,8.670569458E0,1.709970142E1
2.562539087E1,3.161126404E0,-1.689162369E1,4.974455566E0,1.789035715E1
2.563531187E1,-8.545729065E-1,-2.415137695E1,5.427563324E0,2.476848294E1
2.564523187E1,-3.935017090E0,-3.119228531E1,7.494764557E0,3.232049687E1
2.565515287E1,-3.217559052E0,-3.073932724E1,7.980654144E0,3.192099256E1
2.566507387E1,-4.617897034E-1,-2.410407532E1,7.103927307E0,2.513335393E1
2.567499487E1,5.478607178E-2,-2.132300858E1,1.008198441E1,2.358643902E1
2.568491587E1,-8.259823608E-1,-2.426588882E1,1.184187469E1,2.701380395E1
2.569483587E1,-1.829196167E0,-2.728017059E1,1.136182297E1,2.960818615E1
2.570475687E1,-1.739532623E0,-2.894126633E1,1.104133942E1,3.102473282E1
2.571467787E1,-6.640191650E-1,-2.834670273E1,1.023032593E1,3.014359046E1
2.572459887E1,1.384620667E-1,-2.451856339E1,8.734037476E0,2.602811044E1
2.573451887E1,7.523355103E-1,-2.127810196E1,7.772137756E0,2.266560736E1
2.574443987E1,7.634124756E-1,-1.954635315E1,7.507787476E0,2.095255576E1
2.575436087E1,5.932164001E-1,-1.776775177E1,6.858138428E0,1.905463123E1
2.576428187E1,1.407822418E0,-1.776580582E1,6.148015137E0,1.885215930E1
2.577420287E1,2.290087738E0,-1.733006195E1,5.294639740E0,1.826495987E1
2.578412287E1,2.424957275E0,-1.561522797E1,4.024680634E0,1.630686409E1
2.579404387E1,2.075434113E0,-1.344563965E1,2.738555145E0,1.387776411E1
2.580396487E1,1.732497253E0,-1.128009293E1,1.721869354E0,1.154152837E1
2.581388587E1,1.450184326E0,-9.088650055E0,1.086889801E0,9.267573784E0
2.582380687E1,1.126707001E0,-6.912475433E0,6.361770630E-1,7.032532015E0
2.583372687E1,7.200027466E-1,-4.763544159E0,3.785627747E-1,4.832501080E0
2.584364787E1,3.198847961E-1,-3.216660919E0,6.911128235E-1,3.305581747E0
2.585356887E1,5.089416504E-3,-1.813628540E0,1.118025055E0,2.130552606E0
2.586348987E1,-3.933819580E-1,-6.515950012E-1,1.007105713E0,1.262373688E0
2.587341087E1,-4.541555786E-1,4.122427368E-1,8.714877319E-1,1.065688618E0
2.588333087E1,-3.135978699E-1,1.496587830E0,1.082548828E0,1.873507598E0
2.589325187E1,-5.601351929E-1,2.225571899E0,1.311273193E0,2.643172166E0
2.590317287E1,-1.000369720E0,2.209555206E0,1.041833496E0,2.639752038E0
2.591309387E1,-1.274300079E0,2.125729523E0,2.047741699E-1,2.486865327E0
2.592301487E1,-1.372795258E0,2.370470581E0,-7.689509583E-1,2.845168391E0
2.593293487E1,-1.350791016E0,2.651136932E0,-1.166374512E0,3.195871228E0
2.594285587E1,-1.186732178E0,2.802921295E0,-1.122515717E0,3.244185966E0
2.595277687E1,-8.934919739E-1,2.927761688E0,-7.767347717E-1,3.158074305E0
2.596269787E1,-3.891906738E-1,2.767295380E0,-2.796185303E-1,2.808483509E0
2.597261787E1,7.140151978E-1,1.236129456E0,1.781295776E-2,1.427638272E0
2.598253887E1,1.129102020E0,-1.014889526E-1,1.228944397E-1,1.140295761E0
2.599245987E1,1.072220306E0,-8.292755127E-1,4.962181091E-1,1.443463430E0
2.600238087E1,1.189576263E0,-1.365909576E0,1.182540894E0,2.163146695E0
2.601230187E1,1.422641602E0,-1.691931610E0,1.784888306E0,2.841191293E0
2.602222187E1,1.573827209E0,-2.011367340E0,2.084116058E0,3.296372310E0
2.603214287E1,1.335822144E0,-2.415377197E0,2.049238586E0,3.437709497E0
2.604206387E1,1.588197327E-1,-2.275867310E0,1.647174683E0,2.813890572E0
2.605198458E1,-1.081051941E0,-1.277293854E0,1.884131927E0,2.519941668E0
2.606190558E1,-1.313069458E0,-1.036594391E0,2.866539001E0,3.318994604E0
2.607182558E1,-1.055904236E0,-1.522034912E0,4.245321808E0,4.631876648E0
2.608174658E1,-3.294648743E-1,-3.716321869E0,7.219936066E0,8.126934978E0
2.609166758E1,6.198609924E-1,-6.494394836E0,8.259224854E0,1.052502670E1
2.610158858E1,1.900597687E0,-8.925938416E0,6.393504639E0,1.114278016E1
2.611150958E1,2.956651611E0,-1.101499420E1,4.837490387E0,1.238843006E1
2.612142958E1,2.568808136E0,-1.387584503E1,3.665427704E0,1.457989063E1
2.613135058E1,3.475772095E-1,-1.632101028E1,3.911066895E0,1.678668016E1
2.614127158E1,-4.972659302E-1,-1.943752945E1,8.143515472E0,2.108036216E1
2.615119258E1,1.835632782E0,-2.466870117E1,5.323080597E0,2.530315301E1
2.616111258E1,4.608915710E-1,-2.529245407E1,8.519982605E0,2.669289714E1
2.617103358E1,-3.861968994E0,-2.295087341E1,9.280401306E0,2.505560303E1
2.618095458E1,-3.021317139E0,-2.423310699E1,1.044138702E1,2.655926194E1
2.619087558E1,-8.649014282E-1,-2.791125824E1,1.565309921E1,3.201258980E1
2.620079658E1,6.198609924E-1,-2.939676910E1,1.354832611E1,3.237454867E1
2.621071658E1,2.424508209E0,-2.785183182E1,9.028475189E0,2.937883830E1
2.622063758E1,2.272274780E0,-2.323198883E1,8.899443512E0,2.498176600E1
2.623055858E1,1.888921967E0,-1.980666183E1,8.985664215E0,2.183149195E1
2.624047958E1,1.597478027E0,-1.815260147E1,7.750133514E0,1.980235960E1
2.625040058E1,1.250200195E0,-1.838387054E1,7.683971100E0,1.996429584E1
2.626032058E1,1.147663422E0,-1.901076691E1,6.981032867E0,2.028450664E1
2.627024158E1,1.179098053E0,-1.856933487E1,6.002517700E0,1.955097666E1
2.628016258E1,1.369202728E0,-1.756432480E1,5.527705078E0,1.846444543E1
2.629008358E1,1.738784180E0,-1.679567322E1,4.870421906E0,1.757381628E1
2.630000458E1,2.028132477E0,-1.535282364E1,3.777544556E0,1.594027471E1
2.630992458E1,2.250869293E0,-1.336480774E1,2.824476471E0,1.384421055E1
2.631984558E1,2.282752991E0,-1.081321381E1,2.116598511E0,1.125240167E1
2.632976658E1,2.114203491E0,-8.173752594E0,1.394799500E0,8.557193086E0
2.633968758E1,1.834584961E0,-5.911656647E0,7.634124756E-1,6.236680599E0
2.634960758E1,1.006357269E0,-3.822301483E0,5.102888489E-1,3.985365515E0
2.635952858E1,-7.783813477E-3,-2.131717072E0,9.997709656E-1,2.354531852E0
2.636944958E1,-7.764353943E-1,-8.089178467E-1,1.745669861E0,2.074744145E0
2.637937058E1,-1.385668488E0,5.779481506E-1,2.389031982E0,2.821626310E0
2.638929158E1,-1.899849243E0,1.932930450E0,2.952610016E0,4.007936274E0
2.639921158E1,-2.472109222E0,2.607876892E0,3.437900848E0,4.973078336E0
2.640913258E1,-3.160976715E0,2.947670288E0,3.438649292E0,5.523118944E0
2.641905358E1,-3.602259064E0,3.225791931E0,2.766546936E0,5.570977104E0
2.642897458E1,-3.474424896E0,3.467389526E0,1.219364319E0,5.057792782E0
2.643889558E1,-2.832409973E0,3.589236145E0,-1.749861145E-1,4.575563627E0
2.644881558E1,-1.948947144E0,3.694167938E0,-7.726931763E-1,4.247625980E0
2.645873658E1,-9.550140381E-1,3.713028717E0,-1.205592957E0,4.018966091E0
2.646865758E1,3.353027344E-2,1.813029785E0,-1.370998993E0,2.273288261E0
2.647857858E1,5.242098999E-1,-5.789959717E-1,-8.003855896E-1,1.118324392E0
2.648849958E1,7.084767151E-1,-1.471589813E0,-1.800755310E-1,1.643150337E0
2.649841958E1,5.795947266E-1,-1.935026093E0,2.460882568E-1,2.034899372E0
2.650834058E1,4.218228149E-1,-2.147434387E0,8.307723999E-1,2.340852775E0
2.651826158E1,3.293151855E-1,-2.142943726E0,1.424737244E0,2.594326987E0
2.652818258E1,5.861810303E-1,-1.461710358E0,1.856439514E0,2.434455389E0
2.653810258E1,7.671546936E-1,-5.833369446E-1,2.085014191E0,2.296974639E0
2.654802358E1,5.456153870E-1,1.576222229E-1,1.881736908E0,1.965572361E0
2.655794458E1,1.149309998E0,4.242178345E-1,1.125659180E0,1.663725587E0
2.656786558E1,2.026635590E0,-2.832110596E-1,3.345542908E-1,2.073496296E0
2.657778658E1,1.963916016E0,-1.730850677E0,5.516029358E-1,2.675271198E0
2.658770658E1,1.329086151E0,-4.031566315E0,1.806742859E0,4.613492896E0
2.659762758E1,1.324894867E0,-6.474336548E0,4.414020996E0,7.947072511E0
2.660754858E1,1.379680939E0,-8.622369690E0,7.043602753E0,1.121878417E1
2.661746958E1,1.838177490E0,-1.131991013E1,6.464307404E0,1.316459388E1
2.662739058E1,2.636916504E0,-1.400397858E1,5.185816040E0,1.516434742E1
2.663731058E1,3.646716614E0,-1.780203049E1,7.577841797E0,1.968843614E1
2.664723158E1,3.470832367E0,-2.302706497E1,7.961044922E0,2.461037657E1
2.665715258E1,3.412603455E0,-3.271087738E1,1.090362579E1,3.464875780E1
2.666707358E1,-9.165440369E-1,-3.488390854E1,1.143367355E1,3.672132921E1
2.667699458E1,-4.766088867E0,-2.736324783E1,1.170940018E1,3.014254448E1
2.668691458E1,-2.249222717E0,-2.316193451E1,1.199770065E1,2.618165453E1
2.669683558E1,4.001179504E-1,-2.257575348E1,1.072938812E1,2.499889016E1
2.670675658E1,1.052611084E0,-2.217174362E1,1.073447754E1,2.465609891E1
2.671667758E1,1.692979431E-1,-2.097797607E1,9.399852905E0,2.298828781E1
2.672659858E1,-1.478924561E-1,-2.059851517E1,8.900042267E0,2.243950649E1
2.673651858E1,3.070115662E-1,-2.057127182E1,8.822054443E0,2.238526580E1
2.674643958E1,9.403445435E-1,-2.020543259E1,8.582552490E0,2.197280048E1
2.675636058E1,1.690434723E0,-2.035407349E1,7.858059082E0,2.188366902E1
2.676628158E1,2.066452789E0,-1.989482849E1,6.983876953E0,2.118605591E1
2.677620158E1,2.002835083E0,-1.850466934E1,5.828729095E0,1.950405647E1
2.678612258E1,2.011367340E0,-1.657922333E1,5.060526581E0,1.745064967E1
2.679604358E1,2.008972321E0,-1.451232147E1,4.295617218E0,1.526747430E1
2.680596458E1,1.817520447E0,-1.247371078E1,3.480562134E0,1.307712331E1
2.681588558E1,1.410516815E0,-1.065663940E1,2.591261444E0,1.105749325E1
2.682580558E1,1.220412140E0,-8.517886963E0,1.494641876E0,8.733713897E0
2.683572658E1,1.242266693E0,-6.736890564E0,9.086105347E-1,6.910462655E0
2.684564758E1,1.188378754E0,-5.275180206E0,8.759783936E-1,5.477874443E0
2.685556858E1,4.655319214E-1,-3.692521362E0,1.153201904E0,3.896319881E0
2.686548958E1,-4.306544495E-1,-2.170935516E0,2.140548706E0,3.079021441E0
2.687540958E1,-1.183738403E0,-6.631210327E-1,3.043620758E0,3.332355538E0
2.688533058E1,-1.706002350E0,9.136999512E-1,3.607198792E0,4.093552826E0
2.689525158E1,-1.810934143E0,2.221081238E0,3.978277130E0,4.902996355E0
2.690517258E1,-1.995650024E0,2.838247833E0,3.516786804E0,4.940248902E0
2.691509358E1,-2.282453613E0,3.017874298E0,2.411634979E0,4.486997108E0
2.692501358E1,-2.289339294E0,3.147355042E0,1.659149780E0,4.230803252E0
2.693493458E1,-1.907932434E0,3.158132629E0,1.206042023E0,3.881822412E0
2.694485558E1,-1.368005219E0,3.124752045E0,4.635859680E-1,3.442444708E0
2.695477658E1,-7.993377686E-1,3.116219788E0,-8.086184692E-1,3.317172058E0
2.696469658E1,2.185455322E-2,2.436183929E0,-1.722917175E0,2.983942585E0
2.697461758E1,8.662486267E-1,5.170248413E-1,-1.490899658E0,1.800134206E0
2.698453858E1,1.424737244E0,-5.177732849E-1,-9.779164124E-1,1.803963940E0
2.699445958E1,1.341660004E0,-1.205742645E0,-3.046165466E-1,1.829387365E0
2.700438058E1,1.059347076E0,-1.714684296E0,5.599855042E-1,2.091875290E0
2.701430058E1,6.523434448E-1,-2.101030884E0,1.976639557E0,2.957530504E0
2.702422158E1,2.746788025E-1,-1.903441772E0,3.564836884E0,4.050506269E0
2.703414258E1,1.053808594E-1,-7.658074951E-1,3.407064972E0,3.493659681E0
2.704406450E1,-8.048762512E-1,5.171745300E-1,2.451601868E0,2.631662401E0
2.705398550E1,-1.040336609E0,1.131047974E0,1.627715149E0,2.238532194E0
2.706390550E1,-3.135978699E-1,1.585203552E-1,-4.519102478E-1,5.724466779E-1
2.707382650E1,2.713856506E-1,-1.836680603E0,-1.980381775E0,2.714582433E0
2.708374750E1,-7.649093628E-2,-4.020189972E0,-6.330335999E-1,4.070443442E0
2.709366850E1,-2.724334717E-2,-5.574407959E0,3.567381592E0,6.618230709E0
2.710358850E1,5.834866333E-1,-7.436385956E0,7.960446167E0,1.090912443E1
2.711350950E1,2.994223480E0,-9.557924194E0,6.022126923E0,1.168697146E1
2.712343050E1,5.651647339E0,-1.169996979E1,5.409301300E0,1.407447872E1
2.713335150E1,7.294331360E0,-1.598885101E1,8.231532440E0,1.940641010E1
2.714327250E1,5.996230774E0,-2.435405548E1,4.110751648E0,2.541600049E1
2.715319250E1,-3.311114502E-1,-3.059173416E1,6.620582428E0,3.130169237E1
2.716311350E1,-4.984784088E0,-2.856973892E1,1.273641449E1,3.167482137E1
2.717303450E1,-3.602259064E0,-2.598985382E1,7.942932587E0,2.741421073E1
2.718295550E1,-4.159849548E-1,-2.466061798E1,9.129814453E0,2.629966986E1
2.719287650E1,-5.927673340E-1,-2.476809448E1,1.110076584E1,2.714842315E1
2.720279650E1,-2.068099365E0,-2.641586792E1,1.043524979E1,2.847752712E1
2.721271750E1,-2.287543030E0,-2.611933456E1,1.151555328E1,2.863669776E1
2.722263850E1,-9.618997192E-1,-2.458472580E1,1.082459015E1,2.687946699E1
2.723255950E1,-4.805007935E-2,-2.371039398E1,9.654922485E0,2.560083240E1
2.724248050E1,-6.316864014E-2,-2.305400894E1,8.909472656E0,2.471578487E1
2.725240050E1,-1.197509766E-3,-2.147509232E1,8.344697113E0,2.303939151E1
2.726232150E1,8.711883545E-1,-1.993763947E1,7.711364136E0,2.139470901E1
2.727224250E1,1.843416595E0,-1.840782074E1,6.606212311E0,1.964403447E1
2.728216350E1,2.543061676E0,-1.688054672E1,5.363346863E0,1.789372823E1
2.729208450E1,2.848276978E0,-1.494671814E1,4.124523010E0,1.576479480E1
2.730200450E1,2.713557129E0,-1.273207352E1,3.151696014E0,1.339411349E1
2.731192550E1,2.376158752E0,-1.032462982E1,2.301164703E0,1.084156217E1
2.732184650E1,1.976489868E0,-7.712112579E0,1.641486511E0,8.128817294E0
2.733176750E1,1.538650360E0,-5.429209900E0,1.186432800E0,5.766401639E0
2.734168750E1,1.131197662E0,-3.656596069E0,6.550378418E-1,3.883217421E0
2.735160850E1,6.471043396E-1,-2.304757233E0,4.996609497E-1,2.445467438E0
2.736152950E1,1.282832336E-1,-1.321751404E0,6.018983459E-1,1.458000336E0
2.737145050E1,-7.812254333E-1,-6.286926270E-1,7.714956665E-1,1.265216646E0
2.738137150E1,-1.579964447E0,3.766168213E-1,7.620652771E-1,1.794121337E0
2.739129150E1,-1.610051880E0,1.841021576E0,7.451504517E-1,2.556731643E0
2.740121250E1,-1.269959106E0,2.643353119E0,7.875123596E-1,3.036492641E0
2.741113350E1,-1.268911285E0,2.856210480E0,8.517288208E-1,3.239369713E0
2.742105450E1,-1.451980591E0,3.199895782E0,4.755610657E-1,3.545946839E0
2.743097550E1,-1.556313629E0,3.610192566E0,-7.738906860E-2,3.932123033E0
2.744089550E1,-1.359472961E0,3.966451721E0,-5.020559692E-1,4.222909682E0
2.745081650E1,-7.768844604E-1,4.104913788E0,-2.900967407E-1,4.187842259E0
2.746073750E1,8.005352783E-1,2.218686218E0,7.247927856E-1,2.467539229E0
2.747065850E1,1.964365082E0,-6.342311096E-1,1.332079926E0,2.456708408E0
2.748057850E1,1.853296051E0,-1.845811615E0,1.300794983E0,2.921265883E0
2.749049950E1,1.364562378E0,-2.344724121E0,1.113235016E0,2.932414345E0
2.750042050E1,5.748046875E-1,-2.520308990E0,1.110839996E0,2.813596157E0
2.751034150E1,-5.977070618E-1,-2.073188782E0,1.324296112E0,2.531625100E0
2.752026250E1,-1.436712341E0,-7.568261719E-1,1.156045990E0,1.993331517E0
2.753018250E1,-1.599873047E0,2.845582581E-1,7.583230591E-1,1.793215277E0
2.754010350E1,-1.323847046E0,5.821394348E-1,4.656816101E-1,1.519314544E0
2.755002450E1,-9.029223633E-1,4.067042542E-1,5.638774109E-1,1.139576623E0
2.755994550E1,-6.378236389E-1,2.778222656E-1,5.487588501E-1,8.860815319E-1
2.756986650E1,-1.853146362E-1,-3.622467041E-2,6.571334839E-1,6.837237430E-1
2.757978650E1,7.946974182E-1,-1.715283051E0,2.235151978E0,2.927395479E0
2.758970750E1,1.789828033E0,-5.045408020E0,4.293371887E0,6.862409827E0
2.759962850E1,2.022893372E0,-7.400011597E0,5.770350494E0,9.599438215E0
2.760954950E1,2.117197266E0,-9.629924469E0,8.707093506E0,1.315414181E1
2.761946950E1,2.379601593E0,-1.273656418E1,1.045665527E1,1.665005136E1
2.762939050E1,3.164718933E0,-1.553798859E1,6.659950562E0,1.719882196E1
2.763931150E1,3.188669128E0,-1.824570786E1,6.818620605E0,1.973745305E1
2.764923250E1,3.178340607E0,-2.410452438E1,6.919660492E0,2.527867967E1
2.765915350E1,1.965113525E0,-2.714320541E1,5.357958069E0,2.773667222E1
2.766907350E1,-9.246272278E-1,-2.392220352E1,7.833510132E0,2.518909760E1
2.767899450E1,-2.268233185E0,-1.966969666E1,7.817044373E0,2.128727392E1
2.768891550E1,-1.040935364E0,-1.772284515E1,7.929610291E0,1.944380380E1
2.769883650E1,-7.752378845E-1,-1.887305328E1,1.077758789E1,2.174740294E1
2.770875750E1,-6.647676086E-1,-2.108829666E1,1.120060822E1,2.388748200E1
2.771867750E1,-2.025288391E-1,-2.289264450E1,1.054093002E1,2.520367822E1
2.772859850E1,4.092489624E-1,-2.432636307E1,1.096694412E1,2.668732449E1
2.773851950E1,5.575904846E-1,-2.564991074E1,1.105541016E1,2.793655171E1
2.774844050E1,1.905537415E-1,-2.560590225E1,1.104897354E1,2.788867794E1
2.775836150E1,8.487350464E-2,-2.402324341E1,1.074435699E1,2.631662278E1
2.776828150E1,-1.434017944E-1,-2.175201645E1,1.014590149E1,2.400229365E1
2.777820250E1,-6.198609924E-1,-1.983061203E1,9.516909485E0,2.200474874E1
2.778812350E1,-1.011446686E0,-1.823687622E1,8.578361206E0,2.017907232E1
2.779804450E1,-1.026116180E0,-1.674432999E1,7.031927032E0,1.818992850E1
2.780796550E1,-5.498066711E-1,-1.501617371E1,5.628595276E0,1.604583575E1
2.781788550E1,6.104306030E-1,-1.297157547E1,4.631219330E0,1.378704421E1
2.782780650E1,1.585203552E0,-1.045890060E1,3.307971039E0,1.108350777E1
2.783772750E1,1.950294342E0,-7.853418732E0,2.070195007E0,8.352576918E0
2.784764850E1,1.893712006E0,-5.554050293E0,1.096769257E0,5.969633374E0
2.785756850E1,1.585951996E0,-3.752845917E0,4.779560852E-1,4.102138251E0
2.786748950E1,1.062041473E0,-2.446811829E0,2.225871277E-1,2.676633192E0
2.787741050E1,6.102809143E-1,-1.222956848E0,4.073030090E-1,1.426170392E0
2.788733150E1,5.358856201E-2,-4.065545654E-1,7.277865601E-1,8.353631699E-1
2.789725250E1,-4.370910645E-1,2.857557678E-1,8.873547363E-1,1.029613221E0
2.790717250E1,-1.066981201E0,1.279838562E0,9.252259827E-1,1.905906280E0
2.791709350E1,-1.516346741E0,2.323318634E0,7.842192078E-1,2.883074172E0
2.792701450E1,-1.856738892E0,2.515369263E0,3.469784546E-1,3.145624880E0
2.793693550E1,-2.033072205E0,2.472707977E0,-6.107299805E-2,3.201780324E0
2.794685650E1,-1.925146637E0,2.557132416E0,-4.255650330E-1,3.228965990E0
2.795677650E1,-1.714384918E0,2.776276703E0,-8.774752808E-1,3.378874198E0
2.796669750E1,-1.250948639E0,2.993475037E0,-1.034798126E0,3.405374055E0
2.797661850E1,-2.469863892E-2,2.766696625E0,-8.297245789E-1,2.888539962E0
2.798653950E1,2.046244812E0,9.315129089E-1,-2.270777893E-1,2.259734155E0
2.799645950E1,2.975063324E0,-1.090632019E0,1.131347351E0,3.364584196E0
2.800638050E1,2.594255219E0,-2.137704620E0,1.849404144E0,3.836696088E0
2.801630150E1,2.208956451E0,-2.531535645E0,1.662143555E0,3.748450683E0
2.802622250E1,1.732646942E0,-2.681074677E0,1.458117828E0,3.509463556E0
2.803614350E1,9.518705750E-1,-2.731819153E0,1.561103668E0,3.287238680E0
2.804606346E1,-1.942959595E-1,-2.092498627E0,1.653162231E0,2.673807545E0
2.805598446E1,-1.154698792E0,-7.979905701E-1,1.610500946E0,2.136312605E0
2.806590546E1,-1.226549377E0,-1.188528442E-1,1.318757629E0,1.804901953E0
2.807582646E1,-1.241817627E0,6.586303711E-2,1.263372803E0,1.772726656E0
2.808574746E1,-1.274749146E0,-8.322692871E-2,8.970845032E-1,1.560984533E0
2.809566746E1,-8.436456299E-1,-7.032376099E-1,1.546583862E0,1.896892914E0
2.810558846E1,-5.963598633E-1,-3.383264465E0,4.323309631E0,5.522058466E0
2.811550946E1,8.906478882E-2,-6.893015900E0,6.703210602E0,9.615333229E0
2.812543046E1,1.412462769E0,-9.503437500E0,6.625372467E0,1.167072987E1
2.813535046E1,2.187850342E0,-1.127590164E1,5.525908813E0,1.274630594E1
2.814527146E1,1.894909515E0,-1.393991180E1,6.228397980E0,1.538521253E1
2.815519246E1,1.829794922E0,-1.860061981E1,7.862998810E0,2.027703028E1
2.816511346E1,-1.886077881E-2,-2.292243256E1,7.084916840E0,2.399238039E1
2.817503446E1,-2.210004272E0,-2.258219009E1,2.921624451E0,2.287739753E1
2.818495446E1,-1.814227295E0,-2.070629105E1,4.515809326E0,2.127050642E1
2.819487546E1,-1.708696747E0,-1.928828979E1,8.638536072E0,2.120335052E1
2.820479646E1,-1.635798340E0,-1.916659286E1,9.059610443E0,2.126289396E1
2.821471746E1,-3.517684937E-1,-2.046199905E1,9.304800568E0,2.248102444E1
2.822463846E1,3.038681030E-2,-2.251333328E1,1.049153275E1,2.483794191E1
2.823455846E1,-1.347198486E-2,-2.643742310E1,1.098834961E1,2.863007769E1
2.824447946E1,3.757186890E-2,-2.912807785E1,1.114791779E1,3.118849791E1
2.825440046E1,7.970924377E-1,-3.259456924E1,1.096589630E1,3.439901426E1
2.826432146E1,-8.806187439E-1,-2.844819168E1,9.164392548E0,2.990085601E1
2.827424246E1,-1.745370483E0,-2.218222183E1,8.220754852E0,2.372083670E1
2.828416246E1,-8.053253174E-1,-1.916764069E1,8.579109650E0,2.101542578E1
2.829408346E1,1.025517426E0,-1.699266357E1,7.322622528E0,1.853167834E1
2.830400446E1,2.655178528E0,-1.608914246E1,5.681285706E0,1.726810601E1
2.831392546E1,3.412154388E0,-1.551822968E1,4.540957031E0,1.652508822E1
2.832384546E1,3.471880188E0,-1.435320236E1,3.512296143E0,1.517908411E1
2.833376646E1,3.129841461E0,-1.212822922E1,2.627186737E0,1.279812337E1
2.834368746E1,2.485281830E0,-9.685009918E0,1.852846985E0,1.016902576E1
2.835360846E1,1.859133911E0,-7.043602753E0,9.821076965E-1,7.350731539E0
2.836352946E1,1.197958832E0,-5.235213318E0,5.619314575E-1,5.399845443E0
2.837344946E1,3.131488037E-1,-3.823648682E0,2.257305908E-1,3.843085442E0
2.838337046E1,-4.378395081E-1,-2.697390747E0,1.462458801E-1,2.736605221E0
2.839329146E1,-9.342073059E-1,-1.772464142E0,5.541476440E-1,2.078810245E0
2.840321246E1,-1.253942413E0,-8.048762512E-1,1.161434784E0,1.889213623E0
2.841313346E1,-1.651066589E0,1.444496155E-1,1.485061798E0,2.225375276E0
2.842305346E1,-1.740730133E0,1.293609924E0,1.252595215E0,2.504508496E0
2.843297446E1,-1.388662262E0,2.109263763E0,6.683601379E-1,2.612294351E0
2.844289546E1,-1.222507782E0,2.292931824E0,2.270777893E-1,2.608376113E0
2.845281646E1,-9.580078125E-1,2.300565948E0,-2.362088013E-1,2.503233359E0
2.846273646E1,-7.771838379E-1,2.481539612E0,-9.029223633E-1,2.752693655E0
2.847265746E1,-5.354365540E-1,2.905757446E0,-1.403481445E0,3.271066922E0
2.848257846E1,-4.745132446E-2,3.426674194E0,-1.307081909E0,3.667807353E0
2.849249946E1,9.511221313E-1,3.808380432E0,-2.839595032E-1,3.935610223E0
2.850242046E1,2.632276154E0,2.434237976E0,1.232536926E0,3.791245118E0
2.851234046E1,2.808010712E0,-4.685256958E-1,2.308200073E0,3.665000418E0
2.852226146E1,1.454375610E0,-1.701212311E0,2.219584351E0,3.152124114E0
2.853218246E1,3.863465881E-1,-2.251168671E0,1.522184601E0,2.744826047E0
2.854210346E1,-4.596940613E-1,-2.440075836E0,7.237449646E-1,2.586328573E0
2.855202446E1,-1.245110779E0,-2.426005096E0,4.119433594E-1,2.757806902E0
2.856194446E1,-1.723665619E0,-1.920506287E0,5.915698242E-1,2.647512497E0
2.857186546E1,-2.383493500E0,-8.475375366E-1,1.426832886E0,2.904343854E0
2.858178646E1,-2.116299133E0,-2.776725769E-1,1.829944611E0,2.811498063E0
2.859170746E1,-9.744735718E-1,-1.974394226E-1,1.206790466E0,1.563625370E0
2.860162746E1,5.034031677E-1,-8.845106506E-1,2.732567596E0,2.915938873E0
2.861154846E1,1.625469818E0,-4.255800018E0,5.031187592E0,6.787255300E0
2.862146946E1,2.343077545E0,-8.244255981E0,5.471571808E0,1.016837583E1
2.863139046E1,3.278482361E0,-1.038585251E1,3.032693481E0,1.130537963E1
2.864131146E1,3.650458832E0,-1.226743973E1,4.054169312E0,1.342580411E1
2.865123146E1,2.578837280E0,-1.439616302E1,1.050695068E1,1.800821824E1
2.866115246E1,8.770262146E-1,-1.620470215E1,5.794899445E0,1.723201690E1
2.867107346E1,-4.129911804E-1,-1.753438705E1,2.229314117E0,1.768036008E1
2.868099446E1,-1.556014252E0,-2.063923050E1,6.973997498E0,2.184114596E1
2.869091546E1,-1.897304535E0,-2.049642746E1,4.827161865E0,2.114248790E1
2.870083546E1,-2.297572174E0,-1.715298019E1,3.188818817E0,1.759750360E1
2.871075646E1,-3.825444946E0,-1.488774078E1,7.456743622E0,1.708455092E1
2.872067746E1,-2.742297363E0,-1.604049362E1,8.605155487E0,1.840832234E1
2.873059846E1,-9.457333374E-1,-1.984573059E1,8.981173553E0,2.180387380E1
2.874051946E1,-6.474037170E-1,-2.334665039E1,1.011042526E1,2.545006709E1
2.875043946E1,-1.322799225E0,-2.763448380E1,1.085482727E1,2.971938370E1
2.876036046E1,-2.046394501E0,-3.006168640E1,1.161509628E1,3.229246323E1
2.877028146E1,-2.710413666E0,-2.805226501E1,1.180190781E1,3.055422954E1
2.878020246E1,-2.931204529E0,-2.435929459E1,1.111378876E1,2.693480078E1
2.879012246E1,-2.627486115E0,-2.170576263E1,9.743388519E0,2.393694706E1
2.880004346E1,-1.702110443E0,-1.943558350E1,8.827892303E0,2.141426553E1
2.880996446E1,-1.761836243E-1,-1.842698090E1,7.836952972E0,2.002504675E1
2.881988546E1,6.544390869E-1,-1.892694122E1,6.750212860E0,2.010529205E1
2.882980646E1,1.437909851E0,-1.826651459E1,5.833070068E0,1.922908855E1
2.883972646E1,1.782193909E0,-1.699835175E1,4.947361908E0,1.779316068E1
2.884964746E1,2.131717072E0,-1.548589691E1,4.001927948E0,1.613606669E1
2.885956846E1,2.369123383E0,-1.362451767E1,3.214265900E0,1.419759602E1
2.886948946E1,2.180515594E0,-1.118279526E1,2.508782959E0,1.166634261E1
2.887941046E1,1.590891724E0,-8.489595795E0,1.840871887E0,8.831363572E0
2.888933046E1,1.079704742E0,-6.135291595E0,1.406924286E0,6.386470170E0
2.889925146E1,5.758525085E-1,-4.002826080E0,1.014889526E0,4.169439230E0
2.890917246E1,1.317260742E-2,-2.176174622E0,8.634045410E-1,2.341234056E0
2.891909346E1,-4.885839844E-1,-1.179397430E0,1.175505524E0,1.735369080E0
2.892901346E1,-9.458830261E-1,-3.936813354E-1,1.132694550E0,1.527310262E0
2.893893446E1,-1.202000427E0,5.228627014E-1,1.074615326E0,1.694989242E0
2.894885546E1,-1.197958832E0,1.607656860E0,1.134490814E0,2.303635247E0
2.895877646E1,-9.565109253E-1,2.550396423E0,1.085991669E0,2.932373266E0
2.896869746E1,-7.223977661E-1,3.021766205E0,8.414002991E-1,3.218832707E0
2.897861746E1,-4.977149963E-1,3.125051422E0,-1.513352966E-1,3.168054447E0
2.898853846E1,-2.906954956E-1,3.382665710E0,-1.453028412E0,3.692996445E0
2.899845946E1,-1.706451416E-2,3.800446930E0,-2.224524078E0,4.403657053E0
2.900838046E1,5.272036743E-1,4.086053009E0,-1.650168457E0,4.438110954E0
2.901830046E1,1.734293518E0,1.899400177E0,2.471360779E-1,2.583906206E0
2.902822146E1,1.983076172E0,-1.097368011E0,1.661844177E0,2.810433014E0
2.903814246E1,1.396446075E0,-2.243684235E0,1.702559509E0,3.143706327E0
2.904806350E1,7.830216980E-1,-2.749033356E0,1.108744354E0,3.065880202E0
2.905798450E1,9.909393311E-2,-2.764900360E0,6.912625122E-1,2.851725350E0
2.906790450E1,-6.752458191E-1,-2.172282715E0,6.951544189E-1,2.378656927E0
2.907782550E1,-7.279362488E-1,-1.022224274E0,7.972421265E-1,1.486751040E0
2.908774650E1,-2.887495422E-1,7.484436035E-3,6.306385803E-1,6.936406374E-1
2.909766750E1,-7.858657837E-2,6.361770630E-1,4.343966675E-1,7.743368585E-1
2.910758850E1,-3.118016052E-1,9.704319763E-1,6.947053528E-1,1.233520972E0
2.911750850E1,-7.409591675E-1,9.657916260E-1,1.669478302E0,2.066139335E0
2.912742950E1,-1.444196777E0,8.460406494E-1,1.586850128E0,2.306422000E0
