"Time (s)","Acceleration x (m/s^2)","Acceleration y (m/s^2)","Acceleration z (m/s^2)","Absolute acceleration (m/s^2)"
-8.296666201E-4,-1.719923401E0,5.311404877E0,9.035809937E0,1.062144150E1
9.090333362E-3,-1.481618958E0,5.120252380E0,8.449329529E0,9.990162594E0
1.901133335E-2,-1.398990784E0,4.905748444E0,7.740104370E0,9.269992377E0
2.893233334E-2,-1.536255341E0,4.874912567E0,7.266339569E0,8.883948657E0
3.885333333E-2,-1.724563751E0,5.004243622E0,7.141349487E0,8.889063329E0
4.877333331E-2,-1.838476868E0,5.103786621E0,7.191345520E0,9.008001191E0
5.869433330E-2,-1.800755310E0,5.097948761E0,7.320826263E0,9.100895474E0
6.861533329E-2,-1.740730133E0,5.090015259E0,7.591463470E0,9.304230992E0
7.853533339E-2,-1.588496704E0,5.089117126E0,7.847431183E0,9.487076002E0
8.845633338E-2,-1.442400513E0,5.109474792E0,8.089028778E0,9.675724183E0
9.837733337E-2,-1.298399963E0,5.135820007E0,8.258626099E0,9.811594909E0
1.082983334E-1,-1.011596375E0,5.027445374E0,8.261919250E0,9.724085762E0
1.182183333E-1,-7.611671448E-1,4.876110077E0,8.136629791E0,9.516331713E0
1.281393333E-1,-6.735992432E-1,4.743036804E0,7.950716400E0,9.282457936E0
1.380603333E-1,-6.792874146E-1,4.664899292E0,7.824379120E0,9.134748240E0
1.479813333E-1,-7.229965210E-1,4.645290070E0,7.683222656E0,9.007405519E0
1.579013333E-1,-8.478369141E-1,4.634362793E0,7.405400391E0,8.777021185E0
1.678220833E-1,-8.006849670E-1,4.714895325E0,7.510930939E0,8.904235953E0
1.777430833E-1,-7.658074951E-1,4.645290070E0,7.676786041E0,9.005455284E0
1.876640833E-1,-7.908055115E-1,4.393513641E0,7.824229431E0,9.008157507E0
1.975840833E-1,-7.092251587E-1,4.203858032E0,8.033194885E0,9.094374236E0
2.075050833E-1,-5.551954651E-1,4.053420868E0,8.283324738E0,9.238610904E0
2.174260834E-1,-3.598516846E-1,3.912264404E0,8.553662567E0,9.412781168E0
2.273460834E-1,-2.564167786E-1,3.782633972E0,8.867110748E0,9.643636366E0
2.372670834E-1,-2.435435486E-1,3.721860352E0,9.203610992E0,9.930660262E0
2.471880834E-1,-4.492158508E-1,3.881578217E0,9.376202087E0,1.015783490E1
2.571090834E-1,-4.894821167E-1,3.814817047E0,9.366472321E0,1.012537533E1
2.670290833E-1,-2.933898926E-2,3.312162323E0,9.278605042E0,9.852095795E0
2.769500833E-1,1.543290710E-1,3.132236481E0,9.206904144E0,9.726346013E0
2.868710833E-1,1.776805115E-1,3.111878815E0,9.139993286E0,9.656854425E0
2.967920833E-1,2.706372070E-1,3.141816559E0,9.151669006E0,9.679736638E0
3.067120833E-1,4.186793518E-1,3.136427765E0,9.246571655E0,9.773001530E0
3.166330834E-1,4.775070190E-1,3.123404846E0,9.342073059E0,9.861947061E0
3.265540834E-1,4.941224670E-1,3.079995117E0,9.406588898E0,9.910319956E0
3.364750834E-1,5.218148804E-1,3.035387878E0,9.447753296E0,9.937097800E0
3.463950834E-1,6.903643799E-1,2.944377136E0,9.231602783E0,9.714342471E0
3.563160833E-1,7.997868347E-1,2.948418732E0,8.998238068E0,9.502690162E0
3.662370833E-1,8.240364075E-1,2.933898926E0,8.968599701E0,9.472200352E0
3.761570833E-1,9.425898743E-1,2.785557404E0,9.112600250E0,9.575347985E0
3.860780833E-1,1.228345642E0,2.447560272E0,9.501940613E0,9.888693529E0
3.959990833E-1,1.412462769E0,2.004331970E0,9.909842377E0,1.020869108E1
4.059200833E-1,1.437909851E0,1.638043671E0,1.016955231E1,1.040050797E1
4.158400834E-1,1.344204712E0,1.545835419E0,1.040441391E1,1.060416533E1
4.257610834E-1,1.119821320E0,1.706750793E0,1.060649368E1,1.080114375E1
4.356820834E-1,8.496331787E-1,2.039359131E0,1.066666855E1,1.089305651E1
4.456030834E-1,7.056326294E-1,2.352058868E0,1.058419006E1,1.086531995E1
4.555230833E-1,6.730004883E-1,2.532882843E0,1.037627243E1,1.070212384E1
4.654440833E-1,6.276448059E-1,2.520159302E0,1.010368927E1,1.043214636E1
4.753650833E-1,5.001100159E-1,2.355052643E0,9.749226379E0,1.004210127E1
4.852850833E-1,2.950364685E-1,2.120939484E0,9.437574463E0,9.677460543E0
4.952060833E-1,2.091151428E-1,1.736987915E0,9.421557770E0,9.582620047E0
5.051270834E-1,2.624043274E-1,1.216370544E0,9.461824036E0,9.543297513E0
5.150480834E-1,3.884422302E-1,6.066883850E-1,9.589358826E0,9.616379820E0
5.249680834E-1,5.493576050E-1,4.445755005E-2,9.656718750E0,9.672434402E0
5.348890834E-1,5.203179932E-1,-8.427474976E-2,9.734407196E0,9.748667422E0
5.448100833E-1,4.644841003E-1,1.447489929E-1,9.944270782E0,9.956164881E0
5.547310833E-1,4.299060059E-1,3.701802063E-1,1.011581406E1,1.013170995E1
5.646510833E-1,4.646337891E-1,3.665876770E-1,1.024574387E1,1.026282312E1
5.745720833E-1,6.698570251E-1,1.652563477E-1,1.003752686E1,1.006121084E1
5.844930833E-1,8.217910767E-1,-1.193019104E-1,9.625134430E0,9.660889520E0
5.944140833E-1,5.819897461E-1,-2.746788025E-1,9.229207764E0,9.251618045E0
6.043340834E-1,-4.011657715E-2,-2.258802795E-1,9.000034332E0,9.002957804E0
6.142550834E-1,-9.264234924E-1,-1.501377869E-1,8.916807404E0,8.966061349E0
6.241760834E-1,-1.883682861E0,5.807922363E-2,9.134305115E0,9.326690959E0
6.340970834E-1,-3.101999359E0,2.122586060E-1,9.562714233E0,1.005549388E1
6.440170833E-1,-3.134930878E0,-1.555265808E-1,9.610914001E0,1.011047220E1
6.539380833E-1,-2.833457794E0,-8.020321655E-1,9.822873230E0,1.025478314E1
6.638590833E-1,-2.529140625E0,-1.209634552E0,9.473050690E0,9.879193156E0
6.737790833E-1,-2.591860199E0,-1.191372528E0,9.021888885E0,9.462113234E0
6.837000833E-1,-3.064427490E0,-3.647914124E-1,8.527916107E0,9.069131257E0
6.936210834E-1,-3.221600647E0,3.496728516E-1,7.732769623E0,8.384313202E0
7.035420834E-1,-2.932402039E0,4.614903259E-1,6.863527222E0,7.477965028E0
7.134620834E-1,-2.723137207E0,2.891986084E-1,6.697223053E0,7.235461886E0
7.233830834E-1,-2.765798492E0,8.831634521E-3,6.650071106E0,7.202302758E0
7.333040833E-1,-3.012934570E0,-3.156935120E-1,6.195915527E0,6.896869314E0
7.432250833E-1,-4.068689117E0,-1.068478088E0,5.892047424E0,7.239620115E0
7.531450833E-1,-7.107968903E0,-2.826721802E0,5.207221527E0,9.253579529E0
7.630660833E-1,-8.090525665E0,-4.924459534E0,3.794609070E0,1.020323308E1
7.729870833E-1,-8.504265289E0,-6.416556702E0,3.377576294E0,1.117598987E1
7.829080833E-1,-8.209378510E0,-7.238946533E0,2.895129547E0,1.132157310E1
7.928280834E-1,-7.457791443E0,-7.505991211E0,3.073408813E0,1.101836644E1
8.027490834E-1,-6.701264648E0,-7.103328552E0,3.162772980E0,1.026486032E1
8.126700834E-1,-6.165977783E0,-6.059998169E0,3.095862122E0,9.182985468E0
8.225900833E-1,-5.958658905E0,-5.090015259E0,3.357068939E0,8.525478470E0
8.325110833E-1,-5.840853882E0,-4.689148865E0,3.977977753E0,8.481037563E0
8.424320833E-1,-5.721402283E0,-4.843178558E0,4.744384003E0,8.871302170E0
8.523530833E-1,-5.804778900E0,-5.096601562E0,5.397326202E0,9.423477898E0
8.622730833E-1,-5.978866882E0,-5.516777802E0,5.637277222E0,9.897503775E0
8.721940833E-1,-6.016139374E0,-6.699767761E0,5.096751251E0,1.034686882E1
8.821150834E-1,-5.930816803E0,-7.741301880E0,3.938160553E0,1.051719788E1
8.920360834E-1,-6.306236115E0,-7.721842346E0,3.525917816E0,1.057485506E1
9.019560834E-1,-7.156617737E0,-7.130422211E0,4.591851196E0,1.109708051E1
9.118770834E-1,-8.061186676E0,-7.009174347E0,5.673352203E0,1.209537849E1
9.217980833E-1,-8.916957092E0,-7.658673706E0,5.998775482E0,1.319669330E1
9.317190833E-1,-1.060320053E1,-8.632398834E0,6.795867920E0,1.526859496E1
9.416390833E-1,-1.265917511E1,-8.178991699E0,7.581434326E0,1.687094443E1
9.515600833E-1,-1.313638275E1,-6.324797516E0,9.355245667E0,1.732305507E1
9.614810833E-1,-1.253687943E1,-5.735023956E0,1.169592819E1,1.807923067E1
9.714010834E-1,-1.257564880E1,-5.510790253E0,1.242491226E1,1.851740254E1
9.813220834E-1,-1.343186829E1,-4.811444550E0,1.277488449E1,1.915105110E1
9.912430834E-1,-1.525492722E1,-4.661755829E0,1.327020447E1,2.074953249E1
1.001164083E0,-1.458507019E1,-4.644841003E0,1.257579849E1,1.981033892E1
1.011084083E0,-1.324790085E1,-3.935166779E0,1.171972870E1,1.812027746E1
1.021005083E0,-1.203931412E1,-3.177442474E0,1.145672562E1,1.692033649E1
1.030926083E0,-1.081605789E1,-3.021616516E0,1.089299789E1,1.564527653E1
1.040847083E0,-9.526639252E0,-3.038980408E0,1.044168640E1,1.445756108E1
1.050767083E0,-8.076604614E0,-2.958447876E0,9.378297729E0,1.272542432E1
1.060688083E0,-5.874533844E0,-2.833158417E0,7.722141724E0,1.010783890E1
1.070609083E0,-3.939956818E0,-2.713257751E0,5.858367462E0,7.563431541E0
1.080530083E0,-2.064656525E0,-2.584076385E0,5.205425262E0,6.167390817E0
1.090450083E0,-1.419498138E0,-2.905607758E0,3.991300049E0,5.136925879E0
1.100371083E0,-1.992955627E0,-4.445755005E0,3.898942108E0,6.240060838E0
1.110292083E0,-2.618205414E0,-5.506598969E0,5.451962585E0,8.179335414E0
1.120213083E0,-2.995121613E0,-5.306315460E0,6.681206360E0,9.042469555E0
1.130133083E0,-3.715423737E0,-5.475314026E0,5.848338318E0,8.830996450E0
1.140054083E0,-4.529730377E0,-4.874313812E0,6.734645233E0,9.467462112E0
1.149975083E0,-5.001549225E0,-3.257376251E0,4.442910919E0,7.440796471E0
1.159895083E0,-4.589605865E0,-2.960244141E0,3.441942444E0,6.455578608E0
1.169816667E0,-4.108805695E0,-2.905757446E0,2.736010437E0,5.728129161E0
1.179737667E0,-3.717818756E0,-6.239025879E0,3.181035004E0,7.928846317E0
1.189658667E0,-3.751798096E0,-8.890312500E0,3.789519653E0,1.036697181E1
1.199578667E0,-4.990322571E0,-1.051248917E1,1.812880096E0,1.177719330E1
1.209499667E0,-7.136409760E0,-1.150761978E1,-8.837622070E-1,1.356962391E1
1.219420667E0,-9.443861389E0,-1.109582611E1,-3.025358734E0,1.488142031E1
1.229341667E0,-1.038540344E1,-9.901609497E0,-3.726949768E0,1.482526998E1
1.239261667E0,-9.550290070E0,-8.400980072E0,-2.585573273E0,1.297958766E1
1.249182667E0,-8.435408478E0,-6.738986206E0,2.677931213E-1,1.080008169E1
1.259103667E0,-7.485783234E0,-4.821623383E0,3.014581146E0,9.400675622E0
1.269024667E0,-6.195616150E0,-2.729573822E0,4.607867889E0,8.189546948E0
1.278944667E0,-5.140160980E0,-2.260299683E0,6.241570587E0,8.395678231E0
1.288865667E0,-4.849764862E0,-3.420536957E0,9.070088654E0,1.083913283E1
1.298786667E0,-5.813161469E0,-5.003944244E0,1.106139771E1,1.346056550E1
1.308706667E0,-7.065008240E0,-6.531517639E0,1.124356888E1,1.479840887E1
1.318627667E0,-8.337212677E0,-7.643854523E0,1.009680359E1,1.516189533E1
1.328548667E0,-9.717791748E0,-7.319778442E0,8.616232452E0,1.490818884E1
1.338469667E0,-1.055649765E1,-6.788832550E0,6.880442047E0,1.431322370E1
1.348389667E0,-9.086404724E0,-7.447462921E0,5.074597321E0,1.279761668E1
1.358310667E0,-8.394244080E0,-7.657476196E0,4.837041321E0,1.234897745E1
1.368231667E0,-8.297844543E0,-6.722221069E0,5.252128143E0,1.190072814E1
1.378152667E0,-8.884774017E0,-4.793631592E0,4.602179718E0,1.109496153E1
1.388072667E0,-8.792416077E0,-3.437002716E0,3.854484558E0,1.019689263E1
1.397993667E0,-6.409521332E0,-3.456611938E0,3.590583344E0,8.119262192E0
1.407914667E0,-3.027604065E0,-4.275558929E0,3.504512329E0,6.303046660E0
1.417835667E0,6.327342224E-1,-5.666316833E0,3.168311462E0,6.522706231E0
1.427755667E0,3.259621582E0,-5.678441620E0,1.519939270E0,6.721610482E0
1.437676667E0,2.799179077E0,-5.174290009E0,-7.553292847E-1,5.931205858E0
1.447597667E0,1.970202942E0,-4.692891083E0,-1.692380676E0,5.363681450E0
1.457518667E0,6.114784241E-1,-5.027445374E0,-9.086105347E-1,5.145355765E0
1.467438667E0,-1.187031555E-1,-5.060077515E0,-5.980064392E-1,5.096674072E0
1.477359667E0,-5.492079163E-1,-4.560117188E0,-3.710783386E-1,4.608036158E0
1.487280667E0,-1.331630859E0,-4.065545654E0,2.670446777E-1,4.286398847E0
1.497200667E0,-2.463876343E0,-3.680396576E0,1.249751129E0,4.601943445E0
1.507121667E0,-3.699107666E0,-4.862787781E0,1.948797455E0,6.413104868E0
1.517042667E0,-4.945715332E0,-7.006180573E0,2.437980194E0,8.915739666E0
1.526963667E0,-6.887028351E0,-1.006956024E1,4.044140167E0,1.285232557E1
1.536883667E0,-9.072633362E0,-1.341345657E1,5.516029358E0,1.710731052E1
1.546804667E0,-1.066786606E1,-1.761222519E1,8.314310303E0,2.220634140E1
1.556725667E0,-1.085752167E1,-1.883967270E1,9.897418213E0,2.389095920E1
1.566646667E0,-1.085752167E1,-1.707409424E1,1.083656525E1,2.295303067E1
1.576566667E0,-1.050455566E1,-1.462623459E1,1.262025604E1,2.198961779E1
1.586487667E0,-9.546996918E0,-1.153576126E1,1.308009979E1,1.988235269E1
1.596408667E0,-8.478219452E0,-8.011040955E0,1.236803055E1,1.700074004E1
1.606329667E0,-8.325387268E0,-3.706143036E0,1.234662506E1,1.534557655E1
1.616249667E0,-6.923103333E0,-2.560425568E0,1.223226288E1,1.428682589E1
1.626170667E0,-4.383185120E0,-4.287084961E0,1.173664352E1,1.324160906E1
1.636091667E0,-2.069296875E0,-5.965694275E0,1.052626053E1,1.227491990E1
1.646012667E0,-1.522633667E0,-6.315965881E0,9.037157135E0,1.113014139E1
1.655932667E0,-2.418221283E0,-5.605842590E0,7.470814362E0,9.648125857E0
1.665853667E0,-3.776197357E0,-4.775219879E0,6.259682922E0,8.731896796E0
1.675774667E0,-5.301375732E0,-3.901337128E0,5.544021149E0,8.605880927E0
1.685694667E0,-6.484814758E0,-3.576512604E0,5.084626465E0,8.983189364E0
1.695615667E0,-7.032076721E0,-3.576961670E0,4.560416565E0,9.112746954E0
1.705536667E0,-7.126530304E0,-3.612138519E0,4.282145233E0,9.064863300E0
1.715457667E0,-7.058421936E0,-3.291954346E0,4.655319214E0,9.073603508E0
1.725377667E0,-7.025041351E0,-2.799029388E0,5.319039001E0,9.245428460E0
1.735298667E0,-6.787934418E0,-2.851420441E0,5.828429718E0,9.390273967E0
1.745219667E0,-6.327042847E0,-3.291654968E0,5.962550812E0,9.296153817E0
1.755140667E0,-6.081703033E0,-3.199596405E0,5.834417267E0,9.014707637E0
1.765060667E0,-6.162385254E0,-2.860701141E0,5.603148193E0,8.806467664E0
1.774981667E0,-6.244714050E0,-3.197949829E0,5.623805237E0,8.991691833E0
1.784902667E0,-6.257138214E0,-3.934118958E0,5.873186646E0,9.440518629E0
1.794823667E0,-6.265820160E0,-5.061873779E0,6.075116730E0,1.008910857E1
1.804743667E0,-6.295907593E0,-5.799240417E0,5.902675323E0,1.039765444E1
1.814664667E0,-6.478976898E0,-5.859864349E0,5.422174530E0,1.028178625E1
1.824585667E0,-6.619085541E0,-5.476062469E0,4.817282410E0,9.849150389E0
1.834505667E0,-6.913523254E0,-4.974754944E0,4.412075043E0,9.592257123E0
1.844426667E0,-7.071893921E0,-4.387675781E0,4.107608185E0,9.280938928E0
1.854347667E0,-7.068002014E0,-4.443060608E0,4.195774841E0,9.343552138E0
1.864268667E0,-7.008276215E0,-5.405259705E0,4.746030579E0,1.004278717E1
1.874188667E0,-6.941215668E0,-6.660699005E0,4.954846344E0,1.082108536E1
1.884109667E0,-7.068900146E0,-7.088509369E0,5.174589386E0,1.126910332E1
1.894030667E0,-7.173981628E0,-6.729855194E0,5.216352539E0,1.113406023E1
1.903951667E0,-7.707023163E0,-5.754184113E0,4.979245605E0,1.083059221E1
1.913871667E0,-8.100405121E0,-4.442761230E0,4.450245667E0,1.025472462E1
1.923792667E0,-7.604636078E0,-3.842509460E0,3.884721680E0,9.364103340E0
1.933713667E0,-7.131170654E0,-4.114942932E0,3.724704437E0,9.036579739E0
1.943634667E0,-6.971153412E0,-4.466262360E0,3.618425446E0,9.035346261E0
1.953554667E0,-7.164700928E0,-4.859494629E0,3.522924042E0,9.346583399E0
1.963475667E0,-7.627688141E0,-5.114863586E0,3.342549133E0,9.773233374E0
1.973396667E0,-8.215665436E0,-4.885839844E0,3.282673645E0,1.010665799E1
1.983316667E0,-8.387807465E0,-4.999603271E0,3.412004700E0,1.034374802E1
1.993237667E0,-8.616382141E0,-4.555327148E0,3.590882721E0,1.038689007E1
2.003158667E0,-8.455766144E0,-4.393663330E0,3.567830658E0,1.017514983E1
2.013079667E0,-8.120164032E0,-4.353397064E0,3.265010376E0,9.774938499E0
2.022999667E0,-7.162156219E0,-5.183121643E0,3.713926849E0,9.589290084E0
2.032920667E0,-6.906038818E0,-5.100044403E0,3.918701019E0,9.437162855E0
2.042841667E0,-7.155869293E0,-4.758903809E0,4.172273712E0,9.553088439E0
2.052762667E0,-7.352560272E0,-4.033362579E0,4.279301147E0,9.414912350E0
2.062682667E0,-7.725285187E0,-3.482358398E0,4.379592590E0,9.538746379E0
2.072603667E0,-8.539442139E0,-2.858156433E0,4.772076416E0,1.019136122E1
2.082524667E0,-9.455986176E0,-2.212848358E0,5.157075806E0,1.099580844E1
2.092445667E0,-1.062340851E1,-1.982776794E0,5.739364929E0,1.223636065E1
2.102365667E0,-1.152498367E1,-2.223925323E0,6.433022461E0,1.338487469E1
2.112286667E0,-1.239452545E1,-2.738255768E0,7.053033142E0,1.452128033E1
2.122207667E0,-1.265318756E1,-3.383264465E0,7.052284698E0,1.487562951E1
2.132128667E0,-1.142678787E1,-3.651356964E0,6.499933319E0,1.364379060E1
2.142048667E0,-9.697284393E0,-3.464994507E0,6.081403656E0,1.195938886E1
2.151969667E0,-8.249046021E0,-2.791694641E0,6.500681763E0,1.086734478E1
2.161890667E0,-6.354136505E0,-2.333048401E0,7.187902679E0,9.873404200E0
2.171811167E0,-5.312153320E0,-1.828597412E0,7.103777618E0,9.056842598E0
2.181732167E0,-4.753065948E0,-1.841919708E0,6.172713776E0,8.005416883E0
2.191653167E0,-4.631668396E0,-2.045496368E0,4.849764862E0,7.011178698E0
2.201574167E0,-4.870421906E0,-2.636018372E0,3.760779419E0,6.694256063E0
2.211494167E0,-5.267396393E0,-3.456462250E0,3.382216644E0,7.150663289E0
2.221415167E0,-5.691464539E0,-3.962410126E0,3.328328705E0,7.692284093E0
2.231336167E0,-6.107150116E0,-3.892056427E0,3.466341705E0,8.028755233E0
2.241257167E0,-6.599027252E0,-3.567381592E0,3.769611053E0,8.395435640E0
2.251177167E0,-7.367379456E0,-3.267555084E0,4.142036591E0,9.061548620E0
2.261098167E0,-8.073012085E0,-3.006348267E0,4.390370178E0,9.668867789E0
2.271019167E0,-8.436456299E0,-2.557132416E0,4.570595398E0,9.929907520E0
2.280939167E0,-8.468938751E0,-1.629212036E0,5.040019226E0,9.988946352E0
2.290860167E0,-8.396788788E0,-5.836363220E-1,5.815855865E0,1.023087840E1
2.300781167E0,-8.517737274E0,2.053729248E-1,6.616391144E0,1.078752326E1
2.310702167E0,-9.031169586E0,7.575746155E-1,7.033872986E0,1.147219737E1
2.320622167E0,-9.842332764E0,1.191522217E0,7.076534271E0,1.218066405E1
2.330543167E0,-1.134865036E1,1.601519623E0,6.928192749E0,1.339240773E1
2.340464167E0,-1.113833771E1,1.508712616E0,5.455854492E0,1.249420381E1
2.350385167E0,-9.503287811E0,6.942562866E-1,3.839515686E0,1.027308871E1
2.360305167E0,-8.617280273E0,-4.087998962E-1,3.611988831E0,9.352598568E0
2.370226167E0,-8.247998199E0,-9.006770325E-1,3.905977478E0,9.170460919E0
2.380147167E0,-8.186326447E0,-1.159638519E0,4.199067993E0,9.273234290E0
2.390067167E0,-8.403674469E0,-1.325643311E0,4.483925629E0,9.616894707E0
2.399988167E0,-8.652008057E0,-1.348845062E0,4.641547852E0,9.910630296E0
2.409909167E0,-8.843160553E0,-1.172362061E0,4.737198944E0,1.010034530E1
2.419830167E0,-8.957223358E0,-8.178991699E-1,4.790188751E0,1.019052097E1
2.429750167E0,-9.008416901E0,-4.571493530E-1,4.755610657E0,1.019688155E1
2.439671167E0,-9.010063477E0,-1.770817566E-1,4.688550110E0,1.015849910E1
2.449592167E0,-9.097332001E0,-1.945953369E-3,4.642895050E0,1.021361482E1
2.459513167E0,-9.113199005E0,1.053808594E-1,4.577481079E0,1.019876631E1
2.469433167E0,-9.085356903E0,1.447489929E-1,4.541855164E0,1.015840099E1
2.479354167E0,-8.939859467E0,1.422042847E-1,4.488565979E0,1.000442572E1
2.489275167E0,-8.716972961E0,1.359173584E-1,4.449946289E0,9.788059722E0
2.499196167E0,-8.628506927E0,-7.334747314E-3,4.493505707E0,9.728452042E0
2.509116167E0,-8.635542297E0,-1.866618347E-1,4.412673798E0,9.699439337E0
2.519037167E0,-8.647068329E0,-2.453398132E-1,4.319118347E0,9.668855444E0
2.528958167E0,-8.700058136E0,-2.472857666E-1,4.392465820E0,9.749149594E0
2.538878167E0,-8.661438446E0,-3.165916443E-1,4.488715668E0,9.760600113E0
2.548799167E0,-8.578660583E0,-4.077520752E-1,4.514761505E0,9.702718723E0
2.558720167E0,-8.534801788E0,-5.610333252E-1,4.490062866E0,9.660137913E0
2.568641167E0,-8.643026733E0,-7.276368713E-1,4.480482788E0,9.762483933E0
2.578561167E0,-8.792565765E0,-7.858657837E-1,4.579876099E0,9.944951626E0
2.588482167E0,-8.827293549E0,-5.049000549E-1,4.589905243E0,9.962091427E0
2.598403167E0,-8.724008331E0,-4.522096252E-1,4.564907227E0,9.856530470E0
2.608324167E0,-8.739875336E0,-8.325686646E-1,4.614903259E0,9.918463770E0
2.618244167E0,-8.846753082E0,-8.006849670E-1,4.673730927E0,1.003742483E1
2.628165167E0,-8.844956818E0,-7.926017761E-1,4.581672363E0,9.992657321E0
2.638086167E0,-8.838669891E0,-7.220983887E-1,4.460723877E0,9.926810618E0
2.648007167E0,-8.715925140E0,-5.605842590E-1,4.366270294E0,9.764523647E0
2.657927167E0,-8.696016541E0,-5.227130127E-1,4.430636444E0,9.773662152E0
2.667848167E0,-8.747659149E0,-5.498066711E-1,4.539160767E0,9.870552590E0
2.677769167E0,-8.744515686E0,-5.766009521E-1,4.562961273E0,9.880265119E0
2.687689167E0,-8.773854675E0,-5.815406799E-1,4.586013336E0,9.917168636E0
2.697610167E0,-8.758137360E0,-5.366340637E-1,4.607867889E0,9.910872445E0
2.707531167E0,-8.770411835E0,-4.653822327E-1,4.581822052E0,9.906048541E0
2.717452167E0,-8.805438995E0,-4.275109863E-1,4.553979950E0,9.922562921E0
2.727372167E0,-8.826545105E0,-4.323010254E-1,4.529431000E0,9.930283372E0
2.737293167E0,-8.871002655E0,-5.393284607E-1,4.509372711E0,9.965942281E0
2.747214167E0,-9.063801727E0,-6.747967529E-1,4.559967499E0,1.016863590E1
2.757135167E0,-9.103469238E0,-7.129673767E-1,4.566703491E0,1.020961583E1
2.767055167E0,-9.100774841E0,-8.440946960E-1,4.551584930E0,1.021046150E1
2.776976167E0,-9.277108154E0,-9.476792908E-1,4.728966064E0,1.045590512E1
2.786897167E0,-9.337732086E0,-1.016835480E0,4.815336456E0,1.055531431E1
2.796817167E0,-9.547595673E0,-1.021924896E0,4.990023193E0,1.082133287E1
2.806738167E0,-9.217082977E0,-8.810678101E-1,4.991071014E0,1.051863532E1
2.816659167E0,-8.831035767E0,-5.704637146E-1,5.117557983E0,1.022262301E1
2.826580167E0,-8.088430023E0,-2.469863892E-2,5.089416504E0,9.556436083E0
2.836500167E0,-8.462951202E0,2.510279846E-1,5.315296783E0,9.996846403E0
2.846421167E0,-8.721014557E0,5.099894714E-1,5.250182190E0,1.019218314E1
2.856342167E0,-8.835227051E0,7.375163269E-1,4.905000000E0,1.013233400E1
2.866263167E0,-7.802823944E0,7.488926697E-1,3.772006073E0,8.699018999E0
2.876183167E0,-6.472390594E0,-1.302291870E-2,2.746788025E0,7.031134621E0
2.886104167E0,-5.596861267E0,-8.544232178E-1,2.340981903E0,6.126588884E0
2.896025167E0,-5.372028809E0,-1.276395721E0,2.540367279E0,6.077939245E0
2.905946167E0,-5.901028748E0,-1.528471527E0,3.181484070E0,6.876060382E0
2.915866167E0,-6.673123169E0,-1.848805389E0,3.609593811E0,7.808829725E0
2.925787167E0,-7.613018646E0,-2.011666718E0,3.947291565E0,8.808289652E0
2.935708167E0,-8.789871368E0,-1.910776520E0,4.543950806E0,1.007771772E1
2.945628167E0,-1.026625122E1,-1.654359741E0,5.426515503E0,1.172944546E1
2.955549167E0,-1.130494125E1,-1.314716034E0,5.684129791E0,1.272161572E1
2.965470167E0,-1.218496124E1,-9.780661011E-1,5.648952942E0,1.346627503E1
2.975391167E0,-1.243524078E1,-2.694396973E-3,5.482199707E0,1.359006013E1
2.985311167E0,-1.117456238E1,9.328601074E-1,5.164410553E0,1.234553396E1
2.995232167E0,-1.118159775E1,7.011419678E-1,5.044809265E0,1.228697802E1
3.005153167E0,-1.245335312E1,9.369017029E-1,5.583239594E0,1.367977898E1
3.015074167E0,-1.182600769E1,1.513802032E0,5.423821106E0,1.309823995E1
3.024994167E0,-1.134505783E1,2.008672943E0,5.189109192E0,1.263613700E1
3.034915167E0,-1.164293839E1,2.032024384E0,5.328918457E0,1.296474100E1
3.044836167E0,-1.130000153E1,1.494192810E0,4.781057739E0,1.236046762E1
3.054756167E0,-1.098101486E1,6.979985046E-1,4.475393372E0,1.187851149E1
3.064677167E0,-9.725725250E0,-1.128652954E-1,3.847598877E0,1.045975561E1
3.074598167E0,-7.880811768E0,-6.542893982E-1,2.959346008E0,8.443519262E0
3.084519167E0,-5.827082520E0,-1.203347626E0,2.225122833E0,6.352488317E0
3.094439167E0,-3.553610229E0,-1.707199860E0,1.653910675E0,4.275289177E0
3.104360167E0,-2.033670959E0,-1.841919708E0,1.467548218E0,3.111620728E0
3.114281167E0,-1.767524414E0,-1.961820374E0,1.463356934E0,3.018989110E0
3.124202167E0,-2.607577515E0,-2.437980194E0,1.548230438E0,3.891044257E0
3.134122167E0,-4.222868500E0,-3.512745209E0,1.710343323E0,5.753022818E0
3.144043167E0,-6.183940430E0,-4.634362793E0,1.941911774E0,7.968027301E0
3.153964167E0,-8.118367767E0,-5.558241577E0,2.170037384E0,1.007526709E1
3.163884167E0,-9.729916534E0,-6.381978607E0,2.133064270E0,1.183008410E1
3.173805042E0,-1.027343628E1,-5.970184937E0,1.831291809E0,1.202248855E1
3.183726042E0,-1.002136047E1,-3.962410126E0,1.559756470E0,1.088858117E1
3.193647042E0,-1.112666199E1,-2.750530243E0,2.085313568E0,1.164974490E1
3.203567042E0,-1.450034637E1,-8.319699097E-1,2.710114288E0,1.477487524E1
3.213488042E0,-1.844973358E1,1.692380676E0,3.973038025E0,1.894839974E1
3.223409042E0,-2.083337677E1,2.081271973E0,5.734574890E0,2.170821572E1
3.233330042E0,-1.866558472E1,2.980452118E0,5.858517151E0,1.978912254E1
3.243250042E0,-1.437730225E1,4.248165894E0,4.481829987E0,1.564738104E1
3.253171042E0,-1.043210632E1,4.601730652E0,3.035836945E0,1.179919799E1
3.263092042E0,-7.355404358E0,4.446353760E0,2.005679169E0,8.825802171E0
3.273013042E0,-4.800367584E0,3.516337738E0,1.491049347E0,6.134442777E0
3.282933042E0,-2.075883179E0,1.894011383E0,1.204545135E0,3.057367998E0
3.292854042E0,-4.107458496E-1,7.728428650E-1,1.131347351E0,1.430365364E0
3.302775042E0,-2.305206299E-1,2.279759216E-1,1.117725677E0,1.163797006E0
3.312695042E0,-1.136287079E0,-3.076103210E-1,1.367256775E0,1.804207173E0
3.322616042E0,-3.883075104E0,-1.405427399E0,1.789977722E0,4.500835331E0
3.332537042E0,-7.616611176E0,-2.821782074E0,1.935475159E0,8.349927183E0
3.342458042E0,-1.078656921E1,-4.306993561E0,1.225351868E0,1.167911624E1
3.352378042E0,-1.222118591E1,-4.568050690E0,2.095642090E-1,1.304869301E1
3.362299042E0,-1.137589371E1,-2.937491455E0,3.444337463E-1,1.175408220E1
3.372220042E0,-1.243209732E1,-7.461982727E-1,2.772384796E0,1.275930927E1
3.382141042E0,-1.667188065E1,1.132993927E0,5.942941589E0,1.773566560E1
3.392061042E0,-1.939112595E1,2.814896393E0,6.500681763E0,2.064457000E1
3.401982042E0,-1.594708786E1,3.699257355E0,3.563489685E0,1.675388238E1
3.411903042E0,-1.214948502E1,3.746858368E0,1.492396545E0,1.280141325E1
3.421823042E0,-1.011521530E1,3.327131195E0,8.640032959E-1,1.068334612E1
3.431744042E0,-8.614286499E0,2.287842407E0,8.375083923E-1,8.952182699E0
3.441665042E0,-7.591164093E0,1.085243225E0,1.732197876E0,7.861554212E0
3.451586042E0,-7.438631287E0,-3.950285339E-1,2.913990326E0,7.998788820E0
3.461506042E0,-7.563920746E0,-1.670526123E0,3.631448364E0,8.555172225E0
3.471427042E0,-7.655081177E0,-2.293081512E0,3.442541199E0,8.701125246E0
3.481348042E0,-7.819140015E0,-1.974843292E0,2.793640594E0,8.534833588E0
3.491269042E0,-8.783135376E0,-4.827461243E-1,2.640209656E0,9.184074144E0
3.501189042E0,-9.580676880E0,1.022373962E-1,2.595602417E0,9.926579162E0
3.511110042E0,-9.774673462E0,9.086105347E-2,2.458487549E0,1.007951676E1
3.521031042E0,-9.728569336E0,1.474433899E-1,2.322121124E0,1.000295193E1
3.530951042E0,-9.565857697E0,4.135899353E-1,2.312391357E0,9.850068218E0
3.540872042E0,-9.811347198E0,1.040336609E0,2.588716736E0,1.020030825E1
3.550793042E0,-9.832902374E0,1.310075684E0,2.815944214E0,1.031173163E1
3.560714042E0,-9.809101868E0,8.589138794E-1,2.899620209E0,1.026469726E1
3.570634042E0,-9.644144897E0,3.317102051E-1,2.877615967E0,1.006976842E1
3.580555042E0,-9.451944580E0,8.367599487E-2,2.806214447E0,9.860075940E0
3.590476042E0,-9.044641571E0,-1.444496155E-1,2.714155884E0,9.444207166E0
3.600397042E0,-9.006321259E0,9.080117798E-1,2.887196045E0,9.501274073E0
3.610317042E0,-1.051832703E1,6.405180359E-1,2.873274994E0,1.092250777E1
3.620238042E0,-9.584269409E0,-4.569996643E-1,2.282752991E0,9.862962538E0
3.630159042E0,-8.659791870E0,5.159770203E-1,2.557282104E0,9.044220214E0
3.640080042E0,-1.013332764E1,8.165519714E-1,3.075354767E0,1.062115309E1
3.650000042E0,-9.185798035E0,5.050497437E-1,2.667003937E0,9.578458685E0
3.659921042E0,-9.478289795E0,9.280700684E-1,2.857857056E0,9.943170442E0
3.669842042E0,-9.594298553E0,9.845027161E-1,3.008593597E0,1.010304141E1
3.679762042E0,-9.565109253E0,8.683442688E-1,2.922672272E0,1.003929031E1
3.689683042E0,-9.306147766E0,8.605604553E-1,2.882406006E0,9.780246159E0
3.699604042E0,-1.019499939E1,9.800120544E-1,2.971021729E0,1.066421147E1
3.709525042E0,-1.061502594E1,7.313790894E-1,2.785557404E0,1.099877362E1
3.719445042E0,-1.035037628E1,7.691006470E-1,2.490520935E0,1.067354203E1
3.729366042E0,-9.516310730E0,3.836521912E-1,2.222727814E0,9.779973305E0
3.739287042E0,-9.117390289E0,7.128176880E-1,2.503693542E0,9.481740141E0
3.749208042E0,-1.028047165E1,8.958869934E-1,3.087928619E0,1.077153722E1
3.759128042E0,-1.017928207E1,4.535568237E-1,2.898572388E0,1.059364051E1
3.769049042E0,-9.522447968E0,7.837701416E-1,2.834355927E0,9.966187057E0
3.778970042E0,-9.643396454E0,4.644841003E-1,2.770139465E0,1.004412830E1
3.788890042E0,-9.396260376E0,6.137237549E-3,2.668650513E0,9.767878085E0
3.798811042E0,-9.433083801E0,-5.245092773E-1,2.566562805E0,9.790067651E0
3.808732042E0,-8.267308044E0,-6.436614990E-1,2.448308716E0,8.646207145E0
3.818653042E0,-7.633675690E0,-6.813830566E-1,2.268682251E0,7.992759634E0
3.828573042E0,-7.926466827E0,-2.856060791E-1,2.292782135E0,8.256348897E0
3.838494042E0,-8.374784546E0,1.163081360E-1,2.305954742E0,8.687230344E0
3.848415042E0,-8.547375641E0,4.637356567E-1,2.204615479E0,8.839287896E0
3.858336042E0,-8.684640198E0,7.204518127E-1,2.115850067E0,8.967655640E0
3.868256042E0,-8.920250244E0,9.125024414E-1,2.087409210E0,9.206563003E0
3.878177042E0,-9.089248810E0,1.136287079E0,2.099833374E0,9.397600356E0
3.888098042E0,-9.508377228E0,1.242117004E0,2.122735748E0,9.821308427E0
3.898018042E0,-1.006506958E1,1.274000702E0,2.156715088E0,1.037208385E1
3.907939042E0,-1.073627380E1,1.270258484E0,2.184407501E0,1.102963136E1
3.917860042E0,-1.109612549E1,1.259031830E0,2.111060028E0,1.136511049E1
3.927781042E0,-1.086156326E1,1.244362335E0,1.966161346E0,1.110800543E1
3.937701042E0,-1.030771500E1,1.141077118E0,1.853894806E0,1.053508288E1
3.947622042E0,-9.760453033E0,9.851014709E-1,1.880988464E0,9.988742960E0
3.957543042E0,-9.335636444E0,9.114546204E-1,1.978136444E0,9.586338255E0
3.967464042E0,-9.483528900E0,8.195457458E-1,2.113005981E0,9.750577927E0
3.977384042E0,-9.782307587E0,7.653584290E-1,2.126028900E0,1.003988616E1
3.987305042E0,-9.632319489E0,8.936416626E-1,2.083068237E0,9.895420528E0
3.997226042E0,-9.587861938E0,1.024918671E0,2.104922791E0,9.869562036E0
4.007146042E0,-1.001342697E1,1.038839722E0,2.081721039E0,1.028014933E1
4.017067042E0,-1.014829651E1,1.099613342E0,2.045496368E0,1.041062567E1
4.026988042E0,-9.689799957E0,1.202150116E0,1.950144653E0,9.956929862E0
4.036909042E0,-9.287586365E0,1.233285370E0,1.921254730E0,9.564071990E0
4.046829042E0,-9.105864258E0,1.111588440E0,1.886077881E0,9.365344762E0
4.056750042E0,-8.946146393E0,9.518705750E-1,1.839075623E0,9.182689803E0
4.066671042E0,-9.085656281E0,9.421408081E-1,1.934127960E0,9.336896182E0
4.076592042E0,-9.333989868E0,8.628057861E-1,1.957479401E0,9.575986962E0
4.086512042E0,-9.251810760E0,7.111711121E-1,1.855840759E0,9.462870158E0
4.096433042E0,-9.385782166E0,7.408094788E-1,1.834734650E0,9.592077813E0
4.106354042E0,-9.462422791E0,9.113049316E-1,1.769769745E0,9.669540149E0
4.116274042E0,-9.586963806E0,7.430548096E-1,1.570084991E0,9.743057649E0
4.126195042E0,-9.644743652E0,8.280780029E-1,1.566043396E0,9.806084092E0
4.136116042E0,-1.001567230E1,8.403524780E-1,1.580862579E0,1.017442924E1
4.146037042E0,-1.007644592E1,8.205935669E-1,1.586999817E0,1.023360663E1
4.155957042E0,-9.701475677E0,8.678952026E-1,1.618883514E0,9.873836956E0
4.165878042E0,-9.475745087E0,9.488768005E-1,1.744771729E0,9.681649679E0
4.175799167E0,-9.776170349E0,9.632469177E-1,1.892364807E0,1.000411895E1
4.185720167E0,-9.760602722E0,8.818162537E-1,1.840871887E0,9.971748829E0
4.195640167E0,-9.771679688E0,6.894662476E-1,1.794618073E0,9.959003045E0
4.205561167E0,-1.015278717E1,6.161187744E-1,1.845512238E0,1.033753380E1
4.215482167E0,-1.042866348E1,6.385720825E-1,1.800156555E0,1.060213940E1
4.225402167E0,-9.804760895E0,7.373666382E-1,1.657203827E0,9.971126831E0
4.235323167E0,-9.819580078E0,8.098159790E-1,1.569336548E0,9.977112409E0
4.245244167E0,-9.853110352E0,8.264314270E-1,1.381028137E0,9.983687256E0
4.255165167E0,-1.007180557E1,9.366023254E-1,1.393302612E0,1.021076802E1
4.265085167E0,-1.083896027E1,9.857002258E-1,1.350042572E0,1.096709987E1
4.275006167E0,-1.165955383E1,8.821156311E-1,1.412163391E0,1.177784059E1
4.284927167E0,-1.201057388E1,7.469467163E-1,1.291364594E0,1.210286895E1
4.294848167E0,-1.088940536E1,9.348060608E-1,1.222807159E0,1.099764834E1
4.304768167E0,-1.068178711E1,1.094074860E0,1.315464478E0,1.081794909E1
4.314689167E0,-1.033944901E1,1.023421783E0,1.159638519E0,1.045448991E1
4.324610167E0,-9.177864532E0,1.290466461E0,1.164278870E0,9.340987440E0
4.334530167E0,-8.832532654E0,1.431622925E0,1.163680115E0,9.023155140E0
4.344451167E0,-8.955576782E0,1.357227631E0,1.130748596E0,9.128144101E0
4.354372167E0,-8.617429962E0,1.186732178E0,1.118025055E0,8.770314272E0
4.364293167E0,-7.779023438E0,1.047521667E0,1.024319916E0,7.915790458E0
4.374213167E0,-6.423891449E0,9.334588623E-1,8.875044250E-1,6.551747164E0
4.384134167E0,-5.310806122E0,5.078938293E-1,7.967930603E-1,5.394209579E0
4.394055167E0,-5.546416168E0,1.558259583E-1,9.199868774E-1,5.624356843E0
4.403975167E0,-6.482270050E0,4.326004028E-2,1.066681824E0,6.569589526E0
4.413896167E0,-7.016958160E0,1.302291870E-2,1.072968750E0,7.098530366E0
4.423817167E0,-7.442972260E0,-1.032852173E-2,1.045426025E0,7.516040068E0
4.433738167E0,-7.632328491E0,2.574645996E-2,1.045126648E0,7.703595965E0
4.443658167E0,-7.702083435E0,3.055146790E-1,1.242865448E0,7.807697675E0
4.453579167E0,-8.524323578E0,6.701564026E-1,1.767524414E0,8.731399923E0
4.463500167E0,-1.011416748E1,8.343649292E-1,2.343526611E0,1.041559723E1
4.473421167E0,-1.145088776E1,9.909393311E-1,2.764750671E0,1.182153279E1
4.483341167E0,-1.244137802E1,1.184486847E0,2.955903168E0,1.284243979E1
4.493262167E0,-1.291364594E1,1.465003510E0,2.863545227E0,1.330820716E1
4.503183167E0,-1.314611252E1,1.838327179E0,2.766247559E0,1.355919786E1
4.513103167E0,-1.339459579E1,2.261048126E0,2.851270752E0,1.388010375E1
4.523024167E0,-1.269225632E1,2.627037048E0,2.699636078E0,1.323943840E1
4.532945167E0,-1.212718140E1,3.052602081E0,2.651286621E0,1.278343572E1
4.542866167E0,-1.118204681E1,3.217109985E0,2.385589142E0,1.187766825E1
4.552786167E0,-1.023586441E1,3.063229980E0,2.068997498E0,1.088287870E1
4.562707167E0,-9.722282410E0,2.764451294E0,1.898202667E0,1.028436384E1
4.572628167E0,-9.294921112E0,2.521506500E0,1.823657684E0,9.802003921E0
4.582549167E0,-9.142088928E0,2.364483032E0,1.876198425E0,9.627496586E0
4.592469167E0,-9.144783325E0,2.312241669E0,1.922152863E0,9.626432113E0
4.602390167E0,-9.137298889E0,2.446362762E0,1.968406677E0,9.661756911E0
4.612311167E0,-9.395661621E0,2.500400391E0,2.021695862E0,9.930645174E0
4.622231167E0,-9.710307312E0,2.539020081E0,2.030826874E0,1.024016352E1
4.632152167E0,-1.044168640E1,2.827619934E0,2.065554657E0,1.101320868E1
4.642073167E0,-1.137888748E1,3.231779480E0,2.050885162E0,1.200539916E1
4.651994167E0,-1.195698532E1,3.517235870E0,1.968107300E0,1.261799875E1
4.661914167E0,-1.232162704E1,3.727548523E0,2.070793762E0,1.303860797E1
4.671835167E0,-1.257385254E1,3.467688904E0,2.265089722E0,1.323847670E1
4.681756167E0,-1.225770996E1,2.627486115E0,2.235301666E0,1.273388041E1
4.691677167E0,-1.163949554E1,2.297572174E0,2.076182556E0,1.204438576E1
4.701597167E0,-1.109507767E1,1.906585236E0,2.031725006E0,1.143956827E1
4.711518167E0,-9.768835602E0,1.477727051E0,2.008223877E0,1.008200324E1
4.721439167E0,-8.784482574E0,1.280437317E0,2.073637848E0,9.116283659E0
4.731359167E0,-7.072642365E0,8.322692871E-1,2.053878937E0,7.411704316E0
4.741280167E0,-5.165608063E0,5.459147644E-1,1.910626831E0,5.534620536E0
4.751201167E0,-3.539539490E0,2.317181396E-1,1.716779938E0,3.940731715E0
4.761122167E0,-1.999990997E0,-9.175918579E-2,1.481169891E0,2.490431285E0
4.771042167E0,-8.969348145E-1,-4.336482239E-1,1.336720276E0,1.667142447E0
4.780963167E0,-2.761756897E-1,-8.518785095E-1,1.262175293E0,1.547597001E0
4.790884167E0,-3.652404785E-1,-1.258582764E0,1.259480896E0,1.817614730E0
4.800805167E0,-9.614506531E-1,-1.671124878E0,1.401834869E0,2.383733776E0
4.810725167E0,-1.493594055E0,-2.002386017E0,1.552122345E0,2.940995875E0
4.820646167E0,-1.745520172E0,-2.287992096E0,1.650018768E0,3.317274550E0
4.830567167E0,-2.801873474E0,-2.720742188E0,1.885479126E0,4.336815024E0
4.840488167E0,-4.619393921E0,-3.333567810E0,2.001188507E0,6.037899468E0
4.850408167E0,-5.794749756E0,-3.474724274E0,2.019600220E0,7.052064844E0
4.860329167E0,-8.296647034E0,-3.501817932E0,2.518961792E0,9.351056055E0
4.870250167E0,-1.202449493E1,-3.720064087E0,3.371439056E0,1.303050101E1
4.880170167E0,-1.556298660E1,-3.465293884E0,4.055516510E0,1.645180926E1
4.890091167E0,-1.856185043E1,-1.984423370E0,4.584815826E0,1.922240265E1
4.900012167E0,-2.164543808E1,1.145118713E-1,5.342839508E0,2.229538151E1
4.909933167E0,-2.321163116E1,1.641636200E0,5.697452087E0,2.395695621E1
4.919853167E0,-2.449850510E1,1.764081573E0,5.929170227E0,2.526744537E1
4.929774167E0,-2.646152298E1,1.628014526E0,5.528154144E0,2.708178572E1
4.939695167E0,-2.951517288E1,3.089874573E0,5.584886169E0,3.019741228E1
4.949615167E0,-3.061059494E1,4.392316132E0,4.767436066E0,3.128944567E1
4.959536167E0,-2.827036148E1,4.854255524E0,3.049009552E0,2.884568589E1
4.969457167E0,-2.555021805E1,4.818180542E0,1.948797455E0,2.607347920E1
4.979378167E0,-2.309696960E1,4.414020996E0,1.506467285E0,2.356317105E1
4.989298167E0,-2.051334229E1,4.229604492E0,1.588945770E0,2.100503546E1
4.999219167E0,-1.777972687E1,4.212240601E0,1.953138428E0,1.837597366E1
5.009140167E0,-1.533261566E1,4.158053284E0,2.483186188E0,1.607932597E1
5.019061167E0,-1.267129990E1,4.242777100E0,2.827619934E0,1.365863950E1
5.028981167E0,-9.978549500E0,4.057462463E0,2.648891602E0,1.109283906E1
5.038902167E0,-7.487729187E0,3.725303192E0,2.033371582E0,8.606890974E0
5.048823167E0,-5.175038452E0,3.303480377E0,1.197060699E0,6.255154667E0
5.058744167E0,-3.184178467E0,2.783761139E0,5.044509888E-1,4.259435337E0
5.068664167E0,-1.682501221E0,2.189197540E0,8.816665649E-2,2.762457165E0
5.078585167E0,-7.979905701E-1,1.589394836E0,-1.148112488E-1,1.782174660E0
5.088506167E0,-2.951861572E-1,9.925859070E-1,-2.442919922E-1,1.063973791E0
5.098426167E0,9.580078125E-2,4.562512207E-1,-4.113446045E-1,6.217293219E-1
5.108347167E0,3.260220337E-1,1.260379028E-1,-6.089337158E-1,7.021226315E-1
5.118268167E0,5.165757751E-1,-2.395019531E-2,-7.339237976E-1,8.978130563E-1
5.128189167E0,7.209008789E-1,-1.558259583E-1,-8.572673035E-1,1.130878878E0
5.138109167E0,8.388555908E-1,-2.830613708E-1,-8.854087830E-1,1.252098700E0
5.148030167E0,1.032403107E0,-3.808081055E-1,-9.177415466E-1,1.432871430E0
5.157951167E0,1.119372253E0,-4.540058899E-1,-9.238787842E-1,1.520745737E0
5.167872167E0,9.554631042E-1,-5.228627014E-1,-8.425978088E-1,1.377049823E0
5.177791917E0,8.520281982E-1,-5.785469055E-1,-7.454498291E-1,1.271363056E0
5.187712917E0,7.397616577E-1,-5.632786560E-1,-6.062393188E-1,1.109980300E0
5.197633917E0,6.953041077E-1,-5.887257385E-1,-6.218069458E-1,1.103036570E0
5.207553917E0,6.490502930E-1,-6.436614990E-1,-6.285429382E-1,1.109338827E0
5.217474917E0,6.394702148E-1,-6.641688538E-1,-6.143225098E-1,1.107896461E0
5.227395917E0,6.942562866E-1,-7.132667542E-1,-5.489085388E-1,1.136680183E0
5.237316917E0,6.662644958E-1,-7.571255493E-1,-5.517526245E-1,1.149599250E0
5.247236917E0,6.927593994E-1,-7.966433716E-1,-5.025050354E-1,1.169216643E0
5.257157917E0,7.146139526E-1,-8.164022827E-1,-3.246748352E-1,1.132519111E0
5.267078917E0,7.054829407E-1,-8.165519714E-1,-7.095245361E-2,1.081433101E0
5.276999917E0,5.984555054E-1,-7.598199463E-1,1.654060364E-1,9.812413055E-1
5.286919917E0,4.662803650E-1,-6.706054688E-1,3.987707520E-1,9.089263920E-1
5.296840917E0,-2.478845215E-1,-5.203179932E-1,4.369413757E-1,7.232532861E-1
5.306761917E0,-1.010548553E0,-3.543132019E-1,2.390528870E-1,1.097220355E0
5.316681917E0,-1.263073425E0,-2.874023438E-1,2.010319519E-1,1.310865527E0
5.326602917E0,-2.136357422E0,-3.321592712E-1,1.646575928E-1,2.168286175E0
5.336523917E0,-4.229754181E0,-2.020797729E-1,-1.950444031E-1,4.239068174E0
5.346444917E0,-9.899214478E0,3.165617065E0,-1.462309113E0,1.049542408E1
5.356364917E0,-3.038351715E1,1.912917068E1,-4.268373871E0,3.615663564E1
5.366285917E0,-6.585555267E1,3.320993958E1,2.963836670E-2,7.375537121E1
5.376206917E0,-6.282854736E1,2.095088242E1,4.838388519E0,6.640614310E1
5.386126917E0,-4.319148285E1,1.925221481E1,8.785979462E0,4.809724941E1
5.396047917E0,-3.434862167E1,2.643607590E1,1.017329453E1,4.452179063E1
5.405968917E0,-2.983041733E1,2.322660004E1,8.371042328E0,3.872212671E1
5.415889917E0,-2.168525528E1,1.828043564E1,3.738924866E0,2.860776438E1
5.425809917E0,-1.577704147E1,1.434990921E1,1.014739838E0,2.135098660E1
5.435730917E0,-1.292247757E1,1.195399155E1,5.556445312E-1,1.761241270E1
5.445651917E0,-1.188229065E1,1.061457687E1,1.154399414E0,1.597468971E1
5.455572917E0,-1.098011673E1,9.460027771E0,1.930236053E0,1.462124824E1
5.465492917E0,-9.382039948E0,8.328530731E0,2.457589417E0,1.278385089E1
5.475413917E0,-7.469616852E0,7.233557739E0,2.558030548E0,1.070808357E1
5.485334917E0,-5.811365204E0,6.112688599E0,2.268532562E0,8.734023553E0
5.495254917E0,-4.480632477E0,5.027744751E0,1.785936127E0,6.967341855E0
5.505175917E0,-3.360960846E0,3.999532928E0,1.249601440E0,5.371575673E0
5.515096917E0,-2.379152527E0,3.081192627E0,7.441026306E-1,3.963307139E0
5.525017917E0,-1.537452850E0,2.253114624E0,4.264631653E-1,2.760825530E0
5.534937917E0,-6.861730957E-1,1.505718842E0,2.543211365E-1,1.674127232E0
5.544858917E0,-1.700463867E-1,8.406518555E-1,1.939965820E-1,8.793440678E-1
5.554779917E0,9.759704590E-2,3.567082214E-1,1.974394226E-1,4.192234061E-1
5.564699917E0,2.670446777E-1,9.654922485E-2,1.935475159E-1,3.436498998E-1
5.574620917E0,3.360511780E-1,-4.790039063E-2,2.421963501E-1,4.169939012E-1
5.584541917E0,3.454815674E-1,-1.413061523E-1,3.318598938E-1,4.994556349E-1
5.594462917E0,3.701802063E-1,-2.369572449E-1,3.288661194E-1,5.489399289E-1
5.604382917E0,4.218228149E-1,-2.752775574E-1,2.387535095E-1,5.574185672E-1
5.614303917E0,4.818479919E-1,-3.917353821E-1,1.312770081E-1,6.347186383E-1
5.624224917E0,5.792953491E-1,-5.650749207E-1,1.164578247E-1,8.175910912E-1
5.634145917E0,5.387297058E-1,-5.965095520E-1,8.307723999E-2,8.080564147E-1
5.644065917E0,5.439688110E-1,-6.318360901E-1,4.775070190E-2,8.351042101E-1
5.653986917E0,6.276448059E-1,-6.956034851E-1,5.284011841E-2,9.383998556E-1
5.663907917E0,6.438111877E-1,-7.882608032E-1,-3.008743286E-2,1.018210780E0
5.673827917E0,6.671626282E-1,-8.927435303E-1,-1.330732727E-1,1.122410566E0
5.683748917E0,7.090754700E-1,-9.457333374E-1,-2.393522644E-1,1.206022004E0
5.693669917E0,7.694000244E-1,-9.774673462E-1,-2.582130432E-1,1.270469514E0
5.703590917E0,8.143066406E-1,-1.010398865E0,-2.781216431E-1,1.327159681E0
5.713510917E0,8.418493652E-1,-1.017883301E0,-2.285746765E-1,1.340538381E0
5.723431917E0,8.571176147E-1,-1.019679565E0,-2.463876343E-1,1.354660064E0
5.733352917E0,8.358618164E-1,-1.002165985E0,-2.350112915E-1,1.325983388E0
5.743272917E0,8.146060181E-1,-9.750723267E-1,-2.110610962E-1,1.287981286E0
5.753193917E0,3.260220337E-1,-8.231382751E-1,-2.936892700E-1,9.327917098E-1
5.763114917E0,-5.513035583E-1,-4.177812195E-1,-4.534071350E-1,8.270760490E-1
5.773035917E0,-4.381388855E-1,-1.811233521E-1,-4.842430115E-1,6.776891956E-1
5.782955917E0,-5.426216125E-1,-8.367599487E-2,-5.382806396E-1,7.688861642E-1
5.792876917E0,-6.923103333E-1,8.457412720E-2,-6.315367126E-1,9.408958497E-1
5.802797917E0,-9.008267212E-1,2.463876343E-1,-6.396199036E-1,1.131949323E0
5.812718917E0,-2.029779053E0,9.321116638E-1,-1.097218323E0,2.488518275E0
5.822638917E0,-1.216250793E1,1.402164185E1,-5.173541565E0,1.926910926E1
5.832559917E0,-6.228008789E1,5.125970490E1,-8.979377289E0,8.116030994E1
5.842480917E0,-7.829378723E1,3.193548981E1,4.077969818E0,8.465472501E1
5.852400917E0,-4.912738907E1,1.729892670E1,8.046816559E0,5.270203486E1
5.862321917E0,-3.576123413E1,2.242381943E1,8.343349915E0,4.302679435E1
5.872242917E0,-3.248185364E1,1.987117767E1,4.949008484E0,3.839827083E1
5.882163917E0,-2.301404205E1,1.507694733E1,-2.667453003E-1,2.751420770E1
5.892083917E0,-1.600801117E1,1.146076721E1,-4.043840790E0,2.009871277E1
5.902004917E0,-1.311377975E1,9.975406036E0,-5.747448120E0,1.745030386E1
5.911925917E0,-1.131077911E1,8.706794128E0,-4.278253326E0,1.490118920E1
5.921845917E0,-1.062969543E1,7.217091980E0,-1.578018494E0,1.294476667E1
5.931766917E0,-1.018077896E1,5.948031006E0,3.772155762E-1,1.179701762E1
5.941687917E0,-9.010811920E0,4.976102142E0,1.320553894E0,1.037787004E1
5.951608917E0,-7.011569366E0,4.173022156E0,1.410816193E0,8.280496436E0
5.961528917E0,-4.948409729E0,3.508104858E0,1.033151550E0,6.153126089E0
5.971449917E0,-3.346890106E0,2.844085693E0,7.048841858E-1,4.448298386E0
5.981370917E0,-2.042951660E0,2.150128784E0,4.703219604E-1,3.002983187E0
5.991291917E0,-1.068627777E0,1.519041138E0,3.101550293E-1,1.882988966E0
6.001211917E0,-4.896318054E-1,9.939331055E-1,2.148033142E-1,1.128619859E0
6.011132917E0,-2.179467773E-1,6.096821594E-1,2.384541321E-1,6.899808015E-1
6.021053917E0,-3.712280273E-2,3.567082214E-1,3.784130859E-1,5.213591098E-1
6.030973917E0,1.187031555E-1,1.751358032E-1,5.075944519E-1,5.499228276E-1
6.040894917E0,2.432441711E-1,1.796264648E-2,5.195695496E-1,5.739711668E-1
6.050815917E0,3.004252625E-1,-7.723937988E-2,5.116360474E-1,5.983249160E-1
6.060735917E0,3.564088440E-1,-1.386117554E-1,5.998027039E-1,7.113394171E-1
6.070656917E0,4.114942932E-1,-9.415420532E-2,6.360273743E-1,7.633632088E-1
6.080577917E0,4.089495850E-1,-7.125183105E-2,5.771997070E-1,7.109684158E-1
6.090498917E0,3.779640198E-1,-2.453398132E-1,6.010002136E-1,7.511655483E-1
6.100418917E0,3.769161987E-1,-2.921923828E-1,5.481600952E-1,7.265822042E-1
6.110339917E0,3.709286499E-1,-2.745291138E-1,4.932243347E-1,6.754439592E-1
6.120260917E0,4.041595459E-1,-3.022215271E-1,4.989125061E-1,7.096453190E-1
6.130181917E0,4.197271729E-1,-3.210823059E-1,4.472698975E-1,6.923258683E-1
6.140101917E0,4.263134766E-1,-3.282673645E-1,3.686833191E-1,6.522499771E-1
6.150022917E0,4.447251892E-1,-3.357518005E-1,3.216810608E-1,6.434193581E-1
6.159943917E0,4.799020386E-1,-3.580554199E-1,2.793191528E-1,6.607032916E-1
6.169864167E0,5.014572144E-1,-3.541635132E-1,2.377056885E-1,6.583275220E-1
6.179785167E0,4.342469788E-1,-3.080593872E-1,1.785786438E-1,5.615704378E-1
6.189706167E0,4.076023865E-1,-2.791694641E-1,8.038284302E-2,5.005364089E-1
6.199627167E0,3.643423462E-1,-2.101629639E-1,1.930984497E-2,4.210542563E-1
6.209547167E0,3.733236694E-1,-1.541793823E-2,-6.197113037E-2,3.787462158E-1
6.219468167E0,2.439926147E-1,1.746867371E-1,-1.161584473E-1,3.217773097E-1
6.229389167E0,-1.945953369E-3,1.886077881E-1,-1.257385254E-1,2.266867028E-1
6.239309167E0,-9.475296021E-2,1.824705505E-1,-1.190025330E-1,2.375609988E-1
6.249230167E0,-1.035845947E-1,2.228865051E-1,-1.734892273E-1,3.008432722E-1
6.259151167E0,-1.194515991E-1,2.800675964E-1,-1.405577087E-1,3.353550545E-1
6.269072167E0,-1.736389160E-2,1.114133148E0,-3.046165466E-1,1.155156014E0
6.278992167E0,-8.722361755E-1,8.920699310E0,-1.418300629E0,9.074758884E0
6.288913167E0,-9.457333374E0,4.679299347E1,-7.316185913E0,4.829650058E1
6.298834167E0,-3.745615952E1,4.824467468E1,5.604345703E-1,6.108049286E1
6.308754167E0,-7.534207535E1,2.922073517E1,1.684357361E1,8.254686943E1
6.318675167E0,-6.041511612E1,2.026351181E1,1.432940186E1,6.531407141E1
6.328596167E0,-3.060086517E1,1.656859543E1,7.109615479E0,3.551729066E1
6.338517167E0,-2.512210831E1,1.536090683E1,7.438032532E-1,2.945557719E1
6.348437167E0,-2.327899109E1,1.410651535E1,-3.776347046E0,2.748028381E1
6.358358167E0,-1.928978668E1,1.205323517E1,-2.746338959E0,2.291110486E1
6.368279167E0,-1.703158264E1,1.000429596E1,6.010002136E-1,1.976162813E1
6.378199167E0,-1.666155212E1,9.123078461E0,2.351460114E0,1.914072215E1
6.388120167E0,-1.606279724E1,8.661438446E0,3.064726868E0,1.850477025E1
6.398041167E0,-1.419153854E1,8.093070374E0,2.728076935E0,1.656321098E1
6.407962167E0,-1.165596130E1,7.224726105E0,2.151925049E0,1.388124211E1
6.417882167E0,-9.214987335E0,6.168073425E0,1.790576477E0,1.123242118E1
6.427803167E0,-7.014563141E0,5.113067322E0,1.487456818E0,8.806820157E0
6.437724167E0,-5.166955261E0,4.107159119E0,1.319506073E0,6.731068190E0
6.447644167E0,-3.624412994E0,3.234024811E0,1.216220856E0,5.007442381E0
6.457565167E0,-2.400558014E0,2.475252686E0,1.070873108E0,3.610584973E0
6.467486167E0,-1.443897400E0,1.804198151E0,9.611512756E-1,2.502754971E0
6.477407167E0,-6.960525513E-1,1.172661438E0,8.566685486E-1,1.610436278E0
6.487327167E0,-1.716929626E-1,6.367758179E-1,7.713459778E-1,1.014857888E0
6.497248167E0,1.216969299E-1,2.185455322E-1,7.309300232E-1,7.725483747E-1
6.507169167E0,3.415896606E-1,-1.092727661E-2,7.156617737E-1,7.930792369E-1
6.517089167E0,4.577481079E-1,-9.819580078E-2,6.863227844E-1,8.307916165E-1
6.527010167E0,4.941224670E-1,-1.074765015E-1,6.126759338E-1,7.944054448E-1
6.536931167E0,5.240602112E-1,-9.669891357E-2,4.779560852E-1,7.158434216E-1
6.546852167E0,5.240602112E-1,-1.428030396E-1,3.637435913E-1,6.537134030E-1
6.556772167E0,4.532574463E-1,-2.077679443E-1,2.661465454E-1,5.651936084E-1
6.566693167E0,3.591032410E-1,-1.941462708E-1,1.960922241E-1,4.528797550E-1
6.576614167E0,2.996768188E-1,-2.552192688E-1,7.140151978E-2,4.000515566E-1
6.586535167E0,3.228785706E-1,-3.817062378E-1,-1.496887207E-2,5.001742601E-1
6.596455167E0,3.480262756E-1,-4.131408691E-1,-1.285826111E-1,5.552847505E-1
6.606376167E0,3.626957703E-1,-4.590953064E-1,-2.236349487E-1,6.263619660E-1
6.616297167E0,3.676354980E-1,-5.037025452E-1,-3.164419556E-1,6.992908012E-1
6.626217167E0,4.002676392E-1,-5.830375671E-1,-3.851490784E-1,8.052867814E-1
6.636138167E0,4.496649170E-1,-6.225553894E-1,-4.403842163E-1,8.852751032E-1
6.646059167E0,5.266049194E-1,-6.822811890E-1,-4.927752686E-1,9.927979791E-1
6.655980167E0,5.129832458E-1,-6.794371033E-1,-4.626878357E-1,9.689512997E-1
6.665900167E0,4.971162415E-1,-7.084767151E-1,-5.375321960E-1,1.018825145E0
6.675821167E0,4.972659302E-1,-7.241940308E-1,-5.999523926E-1,1.063801331E0
6.685742167E0,5.164260864E-1,-7.238946533E-1,-6.468049622E-1,1.099579934E0
6.695662167E0,5.068460083E-1,-6.665638733E-1,-7.180567932E-1,1.103089222E0
6.705583167E0,4.194277954E-1,-3.239263916E-1,-8.327183533E-1,9.870500689E-1
6.715504167E0,-1.688488770E-1,-4.011657715E-2,-8.414002991E-1,8.591121849E-1
6.725425167E0,-2.885998535E-1,5.328918457E-2,-6.692582703E-1,7.307778356E-1
6.735345167E0,-2.386038208E-1,1.919009399E-1,-6.092330933E-1,6.818524151E-1
6.745266167E0,-2.859054565E-1,3.454815674E-1,-5.893244934E-1,7.405422351E-1
6.755187167E0,-8.252339172E-1,1.993404694E0,-1.337169342E0,2.538246470E0
6.765107167E0,-4.140090637E0,1.827115494E1,-6.057752838E0,1.968938350E1
6.775028167E0,-1.242655884E1,4.357962570E1,-9.503587189E0,4.630249788E1
6.784949167E0,-3.817571320E1,3.815311020E1,4.285139008E0,5.414247235E1
6.794870167E0,-7.416851578E1,3.200449631E1,1.913396072E1,8.301424558E1
6.804790167E0,-5.397700424E1,2.548615128E1,1.884326523E1,6.259496416E1
6.814711167E0,-2.653651703E1,2.279280212E1,1.198108521E1,3.697627574E1
6.824632167E0,-2.099638779E1,1.960832428E1,5.025948486E0,2.916495910E1
6.834552167E0,-1.778706161E1,1.673729462E1,-2.932402039E-1,2.442544947E1
6.844473167E0,-1.479568222E1,1.420575897E1,-7.909552002E-1,2.052660251E1
6.854394167E0,-1.449181412E1,1.230246689E1,1.895807648E0,1.910385968E1
6.864315167E0,-1.550146454E1,1.122425903E1,4.287534027E0,1.961281065E1
6.874235167E0,-1.446636703E1,1.028047165E1,4.931195526E0,1.841957008E1
6.884156167E0,-1.212673233E1,9.231153717E0,4.394112396E0,1.586127548E1
6.894077167E0,-1.020233414E1,7.921227722E0,3.547622681E0,1.339474140E1
6.903997167E0,-8.578361206E0,6.512058105E0,2.792143707E0,1.112615155E1
6.913918167E0,-7.087910614E0,5.187761993E0,2.058519287E0,9.021577081E0
6.923839167E0,-5.680986328E0,4.000580750E0,1.460063782E0,7.100002693E0
6.933760167E0,-4.453389130E0,3.033591614E0,9.677375793E-1,5.474656961E0
6.943680167E0,-3.253484344E0,2.179916840E0,6.039939880E-1,3.962575746E0
6.953601167E0,-2.123334503E0,1.412612457E0,2.977308655E-1,2.567618943E0
6.963522167E0,-1.170865173E0,7.325765991E-1,5.508544922E-2,1.382254728E0
6.973442167E0,-4.034111023E-1,1.872605896E-1,-1.601669312E-1,4.727160794E-1
6.983363167E0,5.089416504E-2,-1.176553345E-1,-2.529739380E-1,2.835997304E-1
6.993284167E0,1.959425354E-1,-2.234852600E-1,-2.797682190E-1,4.081781412E-1
7.003205167E0,2.404000854E-1,-2.462379456E-1,-3.022215271E-1,4.579991030E-1
7.013125167E0,3.294648743E-1,-2.862048340E-1,-3.335064697E-1,5.492602987E-1
7.023046167E0,3.403921509E-1,-3.076103210E-1,-2.336640930E-1,5.148687545E-1
7.032967167E0,2.061213684E-1,-2.797682190E-1,-3.682342529E-2,3.494456174E-1
7.042887167E0,2.680924988E-1,-3.510200500E-1,-2.754272461E-2,4.425463423E-1
7.052808167E0,3.659889221E-1,-4.361929321E-1,-5.298980713E-2,5.718566995E-1
7.062729167E0,3.665876770E-1,-4.625381470E-1,-4.834945679E-2,5.921703575E-1
7.072650167E0,3.549119568E-1,-4.787045288E-1,-6.571334839E-2,5.995321235E-1
7.082570167E0,3.978726196E-1,-4.966671753E-1,5.658233643E-2,6.388915912E-1
7.092491167E0,4.269122314E-1,-5.141807556E-1,7.634124756E-2,6.726543606E-1
7.102412167E0,4.394860840E-1,-5.698649597E-1,7.604187012E-2,7.236549291E-1
7.112332167E0,3.938310242E-1,-5.668711853E-1,7.529342651E-2,6.943449549E-1
7.122253167E0,4.219725037E-1,-5.450166321E-1,1.791773987E-1,7.121856944E-1
7.132174167E0,4.155358887E-1,-5.379812622E-1,2.924917603E-1,7.400306366E-1
7.142095167E0,3.930825806E-1,-5.143304443E-1,2.984793091E-1,7.128391257E-1
7.152015167E0,3.432362366E-1,-4.432283020E-1,2.552192688E-1,6.159539893E-1
7.161936167E0,3.119512939E-1,-3.629951477E-1,1.573228455E-1,5.038150105E-1
7.171856833E0,2.948867798E-1,-2.839595032E-1,1.990859985E-2,4.098628608E-1
7.181776833E0,3.097059631E-1,-1.416055298E-1,-6.945556641E-2,3.475542913E-1
7.191697833E0,1.139131165E-1,1.101708984E-1,-1.058299255E-1,1.905617960E-1
7.201618833E0,-1.014889526E-1,1.122665405E-1,-4.056564331E-2,1.566823380E-1
7.211539833E0,-1.067280579E-1,1.085243225E-1,3.682342529E-2,1.566025912E-1
7.221459833E0,-1.293310547E-1,1.657054138E-1,3.158432007E-2,2.125614621E-1
7.231380833E0,-3.299139404E-1,4.564009094E-1,3.203338623E-2,5.640666060E-1
7.241301833E0,-1.596879272E0,4.376000061E0,-1.394051056E0,4.862384013E0
7.251221833E0,-6.374494171E0,2.036290512E1,-5.969885559E0,2.215675099E1
7.261142833E0,-2.652648788E1,3.522774353E1,1.114282837E0,4.411224433E1
7.271063833E0,-7.281413223E1,4.405144455E1,2.804313400E1,8.960382238E1
7.280984833E0,-6.668198410E1,4.138444061E1,3.067062012E1,8.426058311E1
7.290904833E0,-3.522819260E1,3.060116455E1,1.813868042E1,5.006464374E1
7.300825833E0,-2.548360657E1,2.475177841E1,8.231831818E0,3.646680399E1
7.310746833E0,-1.813179474E1,1.906585236E1,1.792223053E0,2.637196940E1
7.320666833E0,-1.321736435E1,1.426174255E1,-1.365909576E0,1.949260706E1
7.330587833E0,-1.160955780E1,1.158396103E1,-2.090253296E0,1.653297143E1
7.340508833E0,-1.135344040E1,1.019844223E1,-2.147434387E0,1.541169385E1
7.350429833E0,-1.092113937E1,9.346863098E0,-1.981878662E0,1.451078833E1
7.360349833E0,-1.007464966E1,8.287965088E0,-1.500779114E0,1.313168949E1
7.370270833E0,-8.791068878E0,6.996301117E0,-1.024319916E0,1.128185945E1
7.380191833E0,-7.223229218E0,5.664071503E0,-7.484436035E-1,9.209609880E0
7.390111833E0,-5.757327576E0,4.398004303E0,-6.110293579E-1,7.270668438E0
7.400032833E0,-4.547842712E0,3.275338898E0,-5.272036743E-1,5.629268331E0
7.409953833E0,-3.450624390E0,2.303410034E0,-5.089416504E-1,4.179895701E0
7.419874833E0,-2.429897003E0,1.513352966E0,-4.604425049E-1,2.899421312E0
7.429794833E0,-1.468146973E0,7.993377686E-1,-3.561094666E-1,1.709154865E0
7.439715833E0,-7.072792053E-1,2.022294617E-1,-1.880090332E-1,7.592680857E-1
7.449636833E0,-1.941462708E-1,-2.143542480E-1,4.790039063E-2,2.931466621E-1
7.459556833E0,-3.502716064E-2,-4.655319214E-1,3.246748352E-1,5.686480638E-1
7.469477833E0,6.286926270E-2,-6.448590088E-1,5.179229736E-1,8.294817008E-1
7.479398833E0,1.074765015E-1,-7.777825928E-1,6.370751953E-1,1.011119065E0
7.489319833E0,1.065783691E-1,-8.604107666E-1,7.683522034E-1,1.158460506E0
7.499239833E0,1.591191101E-1,-9.231303406E-1,7.926017761E-1,1.227072163E0
7.509160833E0,2.658471680E-1,-9.156459045E-1,7.113208008E-1,1.189562702E0
7.519081833E0,3.275189209E-1,-8.964857483E-1,5.592370605E-1,1.106210392E0
7.529001833E0,3.122506714E-1,-8.589138794E-1,5.294490051E-1,1.056195902E0
7.538922833E0,3.206332397E-1,-7.915539551E-1,5.333409119E-1,1.006884237E0
7.548843833E0,4.502636719E-1,-7.598199463E-1,5.987548828E-1,1.067038488E0
7.558764833E0,5.575904846E-1,-8.062234497E-1,7.975415039E-1,1.263715098E0
7.568684833E0,6.481521606E-1,-8.038284302E-1,9.653425598E-1,1.413551423E0
7.578605833E0,7.298822021E-1,-8.041278076E-1,1.182989960E0,1.605868863E0
7.588526833E0,7.632627869E-1,-7.259902954E-1,1.354832611E0,1.716159490E0
7.598446833E0,7.390132141E-1,-5.668711853E-1,1.512604523E0,1.776360299E0
7.608367833E0,6.851252747E-1,-3.966751099E-1,1.508862305E0,1.703940503E0
7.618288833E0,6.661148071E-1,-2.935395813E-1,1.472937012E0,1.642990524E0
7.628209833E0,5.041516113E-1,-2.438429260E-1,1.435065765E0,1.540468101E0
7.638129833E0,-2.601589966E-1,-2.050735474E-2,1.269360352E0,1.295908545E0
7.648050833E0,-3.282673645E-1,1.986369324E-1,8.656498718E-1,9.468715827E-1
7.657971833E0,-2.577639771E-1,1.580712891E-1,5.505551147E-1,6.281239803E-1
7.667892833E0,-3.691323853E-1,1.371148682E-1,5.938151550E-1,7.125136092E-1
7.677812833E0,-7.253915405E-1,1.868115234E-1,8.382568359E-1,1.124173454E0
7.687733833E0,-1.847907257E0,7.475454712E-1,9.889933777E-1,2.225240069E0
7.697654833E0,-8.172106018E0,4.965474243E0,5.069956970E-1,9.575818287E0
7.707574833E0,-4.046834564E1,2.592967896E1,5.319488068E0,4.835630469E1
7.717495833E0,-6.073065994E1,3.768548264E1,1.010324020E1,7.218368321E1
7.727416833E0,-4.003873901E1,2.902404419E1,1.003049149E1,5.045895879E1
7.737336833E0,-2.734513550E1,2.385484360E1,9.399703217E0,3.748552279E1
7.747257833E0,-2.262919235E1,2.184182968E1,6.599176941E0,3.213557229E1
7.757178833E0,-1.851200409E1,1.923634781E1,2.651136932E0,2.682834135E1
7.767099833E0,-1.745894394E1,1.820888443E1,-2.534230042E-1,2.522781043E1
7.777019833E0,-1.752001694E1,1.810799423E1,-1.669777679E0,2.525150701E1
7.786940833E0,-1.717498444E1,1.731389557E1,-1.043779449E0,2.440984526E1
7.796861833E0,-1.760743515E1,1.615081421E1,3.573069763E-1,2.389556947E1
7.806781833E0,-1.665242111E1,1.437011719E1,1.402583313E0,2.204020501E1
7.816702833E0,-1.466769836E1,1.228689926E1,2.037113800E0,1.924211790E1
7.826623833E0,-1.247071701E1,1.025113266E1,2.193837891E0,1.629163676E1
7.836544833E0,-1.047551605E1,8.450676727E0,1.890867920E0,1.359138533E1
7.846464833E0,-8.836274872E0,6.803651733E0,1.317260742E0,1.122963073E1
7.856385833E0,-7.482490082E0,5.280419312E0,7.662565613E-1,9.190083517E0
7.866306833E0,-6.258635101E0,3.954177246E0,3.585044861E-1,7.411784973E0
7.876226833E0,-5.066214752E0,2.828817444E0,4.340972900E-2,5.802639438E0
7.886147833E0,-3.874991913E0,1.890718231E0,-1.960922241E-1,4.316112825E0
7.896068833E0,-2.760409698E0,1.092428284E0,-3.778143311E-1,2.992658505E0
7.905989833E0,-1.745520172E0,4.489164734E-1,-4.755610657E-1,1.864007779E0
7.915909833E0,-9.068142700E-1,-5.568420410E-2,-4.966671753E-1,1.035418338E0
7.925830833E0,-3.098556519E-1,-4.050576782E-1,-4.411326599E-1,6.742998378E-1
7.935751833E0,-9.415420532E-2,-5.551954651E-1,-3.617976379E-1,6.693314199E-1
7.945671833E0,2.245330811E-2,-6.324348450E-1,-2.802172852E-1,6.920980502E-1
7.955592833E0,1.035845947E-1,-6.725514221E-1,-1.712438965E-1,7.016976954E-1
7.965513833E0,1.619631958E-1,-6.854246521E-1,-9.894424438E-2,7.112165591E-1
7.975434833E0,2.514770508E-1,-6.942562866E-1,-1.062789917E-1,7.460078570E-1
7.985354833E0,2.917433167E-1,-6.701564026E-1,-1.607656860E-1,7.483778274E-1
7.995275833E0,2.360591125E-1,-6.075865173E-1,-1.683998108E-1,6.732338204E-1
8.005196833E0,2.583627319E-1,-6.333329773E-1,-1.704954529E-1,7.049330896E-1
8.015116833E0,4.390370178E-1,-7.427554321E-1,-2.011816406E-1,8.859532649E-1
8.025037833E0,5.914201355E-1,-8.717871094E-1,-2.456391907E-1,1.081725082E0
8.034958833E0,6.764433289E-1,-9.578581238E-1,-1.868115234E-1,1.187420022E0
8.044879833E0,7.117698669E-1,-9.846524048E-1,-4.670288086E-2,1.215869179E0
8.054799833E0,7.701484680E-1,-9.822573853E-1,4.610412598E-2,1.249033156E0
8.064720833E0,7.288343811E-1,-9.407936096E-1,8.666976929E-2,1.193232509E0
8.074641833E0,6.068380737E-1,-8.422984314E-1,1.050814819E-1,1.043437211E0
8.084561833E0,5.212161255E-1,-7.655081177E-1,2.240840149E-1,9.528287220E-1
8.094482833E0,4.790039062E-1,-7.093748474E-1,3.385958862E-1,9.204914940E-1
8.104403833E0,4.405339050E-1,-6.403683472E-1,3.836521912E-1,8.667933694E-1
8.114324833E0,3.510200500E-1,-5.640270996E-1,3.598516846E-1,7.555361537E-1
8.124244833E0,-7.723937988E-2,-4.417314148E-1,2.725831604E-1,5.247800910E-1
8.134165833E0,-5.541476440E-1,-1.872605896E-1,1.568737793E-1,6.056034366E-1
8.144086833E0,-5.034031677E-1,-2.350112915E-2,1.372645569E-1,5.223108375E-1
8.154006833E0,-5.480104065E-1,1.020877075E-1,1.574725342E-1,5.792537481E-1
8.163927833E0,-8.699908447E-1,5.267546082E-1,6.900650024E-2,1.019370582E0
8.173848917E0,-1.969304810E0,3.356021118E0,-9.910890198E-1,4.015382500E0
8.183769917E0,-7.013215942E0,1.128203888E1,-2.975213013E0,1.361328365E1
8.193689917E0,-2.716401215E1,1.388886795E1,4.176315308E-1,3.051161459E1
8.203610917E0,-7.230084961E1,2.038101746E1,1.792956528E1,7.722867368E1
8.213531917E0,-5.666331802E1,3.438769043E1,1.931194061E1,6.903764127E1
8.223451917E0,-3.062242035E1,3.310575623E1,1.495001129E1,4.751027848E1
8.233372917E0,-3.029624863E1,2.742027924E1,1.299597473E1,4.287924619E1
8.243293917E0,-2.256617340E1,2.213447113E1,6.622378693E0,3.229586496E1
8.253213917E0,-1.708472214E1,1.768542297E1,2.536175995E0,2.472031765E1
8.263134917E0,-1.499836075E1,1.515568359E1,4.504133606E-1,2.132717615E1
8.273055917E0,-1.495150818E1,1.426338913E1,-2.607577515E-1,2.066542670E1
8.282976917E0,-1.484912109E1,1.374801086E1,-5.957611084E-2,2.023629782E1
8.292896917E0,-1.270662643E1,1.216939362E1,6.746470642E-1,1.760703396E1
8.302817917E0,-1.098400864E1,1.038300842E1,1.516496429E0,1.519062445E1
8.312738917E0,-9.322014771E0,8.623716888E0,1.977687378E0,1.285222548E1
8.322658917E0,-7.681875458E0,6.957232361E0,2.063009949E0,1.056741703E1
8.332579917E0,-6.195167084E0,5.376968536E0,1.981579285E0,8.439107909E0
8.342500917E0,-4.817581787E0,3.870052185E0,1.751956787E0,6.423063971E0
8.352421917E0,-3.606600037E0,2.490371246E0,1.379980316E0,4.594981876E0
8.362341917E0,-2.640209656E0,1.336121521E0,8.970845032E-1,3.092036279E0
8.372262917E0,-1.827399902E0,3.999682617E-1,5.078938293E-1,1.938381066E0
8.382183917E0,-1.112037506E0,-2.266287231E-1,1.615141296E-1,1.146331020E0
8.392103917E0,-6.225553894E-1,-4.884342957E-1,-4.984634399E-2,7.928606006E-1
8.402024917E0,-3.805087280E-1,-6.486012268E-1,-1.118174744E-1,7.602457439E-1
8.411945917E0,-1.580712891E-1,-8.232879639E-1,-1.291813660E-1,8.482201537E-1
8.421866917E0,-6.945556641E-2,-1.054257660E0,-1.216969299E-1,1.063528764E0
8.431786917E0,7.664062500E-2,-1.242416382E0,-1.498384094E-1,1.253763853E0
8.441707917E0,2.444416809E-1,-1.360520782E0,-2.209405518E-1,1.399851157E0
8.451628917E0,3.234773254E-1,-1.426832886E0,-2.790197754E-1,1.489409849E0
8.461548917E0,3.956272888E-1,-1.439556427E0,-2.630030823E-1,1.515920275E0
8.471469917E0,4.854405212E-1,-1.448537750E0,-3.236270142E-1,1.561617289E0
8.481390917E0,6.334826660E-1,-1.490151215E0,-3.435356140E-1,1.655254557E0
8.491311917E0,8.637039185E-1,-1.574575653E0,-3.963757324E-1,1.839126604E0
8.501231917E0,1.008003845E0,-1.573078766E0,-3.876937866E-1,1.908128672E0
8.511152917E0,1.138233032E0,-1.585951996E0,-4.089495850E-1,1.994506940E0
8.521073917E0,1.139131165E0,-1.540296936E0,-3.755690002E-1,1.952226046E0
8.530993917E0,1.083297272E0,-1.424737244E0,-3.844006348E-1,1.830620944E0
8.540914917E0,1.022373962E0,-1.303639069E0,-3.701802063E-1,1.697573776E0
8.550835917E0,1.008752289E0,-1.255738678E0,-3.537144470E-1,1.649113313E0
8.560756917E0,9.608518982E-1,-1.204245758E0,-3.529660034E-1,1.580515490E0
8.570676917E0,8.735833740E-1,-1.140029297E0,-2.998265076E-1,1.467211861E0
8.580597917E0,6.909631348E-1,-1.091679840E0,-2.697390747E-1,1.319831086E0
8.590518917E0,5.164260864E-2,-9.562115479E-1,-3.619473267E-1,1.023725232E0
8.600438917E0,-5.572911072E-1,-7.647596741E-1,-5.382806396E-1,1.088658250E0
8.610359917E0,-6.066883850E-1,-5.218148804E-1,-4.992118835E-1,9.431723440E-1
8.620280917E0,-7.128176880E-1,-3.959266663E-1,-4.137396240E-1,9.143563079E-1
8.630201917E0,-1.025667114E0,-3.897894287E-1,-4.772076416E-1,1.196518266E0
8.640121917E0,-2.408042450E0,-6.553372192E-1,-7.223977661E-1,2.598075027E0
8.650042917E0,-6.664291534E0,-1.091530151E0,-1.520837402E0,6.922222629E0
8.659963917E0,-2.951008347E1,3.539090424E0,-4.928201752E0,3.012735235E1
8.669883917E0,-7.520795425E1,2.865536087E1,-1.142993134E1,8.128966367E1
8.679804917E0,-5.794465347E1,3.660428101E1,-3.416794739E0,6.862310646E1
8.689725917E0,-2.655672501E1,3.080084930E1,7.194339294E0,4.130024793E1
8.699646917E0,-3.292298630E1,2.874322815E1,1.334400101E1,4.569637353E1
8.709566917E0,-2.806813202E1,2.415871170E1,1.367930374E1,3.947894042E1
8.719487917E0,-1.696586929E1,1.934337524E1,8.048313446E0,2.695889901E1
8.729408917E0,-1.313533493E1,1.498159561E1,4.368365936E0,2.039774134E1
8.739328917E0,-1.346090790E1,1.308069855E1,2.502945099E0,1.893582452E1
8.749249917E0,-1.453028412E1,1.263732056E1,1.560355225E0,1.932008633E1
8.759170917E0,-1.385414017E1,1.205113953E1,8.726852417E-1,1.838283828E1
8.769090917E0,-1.130643814E1,1.053134995E1,9.122030640E-1,1.547827476E1
8.779011917E0,-9.446555786E0,8.959468689E0,1.366059265E0,1.309105089E1
8.788932917E0,-7.702532501E0,7.624394989E0,1.486109619E0,1.093932940E1
8.798853917E0,-6.106401672E0,6.511758728E0,1.351240082E0,9.028676142E0
8.808773917E0,-4.828808441E0,5.407954102E0,1.227447510E0,7.353229625E0
8.818694917E0,-3.695814514E0,4.335883484E0,1.043779449E0,5.792098588E0
8.828615917E0,-2.719394989E0,3.327131195E0,7.490423584E-1,4.361877526E0
8.838535917E0,-1.818119202E0,2.311193848E0,5.221142578E-1,2.986599694E0
8.848456917E0,-1.025517426E0,1.380878448E0,2.522254944E-1,1.738427157E0
8.858377917E0,-4.517605591E-1,6.674620056E-1,3.293151855E-2,8.066459053E-1
8.868298917E0,-1.203497314E-1,1.953437805E-1,-1.562750244E-1,2.776060765E-1
8.878218917E0,8.232879639E-2,-5.104385376E-2,-3.164419556E-1,3.309365754E-1
8.888139917E0,1.320254517E-1,-2.103126526E-1,-3.824546814E-1,4.559974946E-1
8.898060917E0,1.974394226E-1,-3.469784546E-1,-4.334985352E-1,5.893193986E-1
8.907980917E0,2.704875183E-1,-4.221221924E-1,-4.511618042E-1,6.744609821E-1
8.917901917E0,3.558100891E-1,-5.114863586E-1,-4.567002869E-1,7.725246058E-1
8.927822917E0,4.099974060E-1,-6.191125488E-1,-4.592449951E-1,8.731003302E-1
8.937743917E0,4.352947998E-1,-6.735992432E-1,-4.348457336E-1,9.123093309E-1
8.947663917E0,4.034111023E-1,-7.044351196E-1,-3.558100891E-1,8.863239671E-1
8.957584917E0,3.996688843E-1,-7.686515808E-1,-2.362088013E-1,8.979727543E-1
8.967505917E0,3.888912964E-1,-8.719367981E-1,-1.309776306E-1,9.636728491E-1
8.977425917E0,5.587879944E-1,-9.695338440E-1,-2.844085693E-2,1.119396614E0
8.987346917E0,7.402107239E-1,-1.106948090E0,1.856140137E-2,1.331762184E0
8.997267917E0,8.343649292E-1,-1.194665680E0,7.918533325E-2,1.459335890E0
9.007188917E0,8.991801453E-1,-1.290915527E0,1.381626892E-1,1.579264627E0
9.017108917E0,9.509724426E-1,-1.331930237E0,1.733395386E-1,1.645731855E0
9.027029917E0,9.527687073E-1,-1.298998718E0,1.681004333E-1,1.619698625E0
9.036950917E0,8.981323242E-1,-1.287472687E0,1.237925720E-1,1.574659389E0
9.046870917E0,8.605604553E-1,-1.237476654E0,1.052311707E-1,1.510955448E0
9.056791917E0,5.662724304E-1,-1.074465637E0,5.134323120E-2,1.215638515E0
9.066712917E0,-4.201762390E-1,-7.707472229E-1,-1.001417542E-1,8.835313941E-1
9.076633917E0,-6.917115784E-1,-4.544549561E-1,-1.577719116E-1,8.425474413E-1
9.086553917E0,-6.194119263E-1,-2.345622253E-1,-1.288819885E-1,6.747600603E-1
9.096474917E0,-6.466552734E-1,2.439926147E-2,-1.068777466E-1,6.558820163E-1
9.106395917E0,-1.888173523E0,8.922944641E-1,-6.015989685E-1,2.173317736E0
9.116315917E0,-8.143665161E0,4.630321198E0,-2.348017273E0,9.657760701E0
9.126236917E0,-3.655533279E1,1.126527374E1,-3.059038696E0,3.837390345E1
9.136157917E0,-7.216972229E1,1.428778839E1,3.551215210E0,7.365609847E1
9.146078917E0,-4.751374466E1,2.435330704E1,7.472760315E0,5.391179502E1
9.155998917E0,-2.662633026E1,3.620131897E1,9.925859070E0,4.602194734E1
9.165919917E0,-3.130395309E1,3.188444595E1,1.369232666E1,4.673366220E1
9.175840833E0,-2.543899933E1,2.498963379E1,9.649683380E0,3.694239940E1
9.185760833E0,-1.772299484E1,2.038371185E1,3.720064087E0,2.726608024E1
9.195681833E0,-1.492830643E1,1.676663361E1,8.289761353E-1,2.246467308E1
9.205602833E0,-1.512499741E1,1.478580276E1,-4.135899353E-1,2.115553276E1
9.215522833E0,-1.564606384E1,1.362766113E1,-4.604425049E-1,2.075390250E1
9.225443833E0,-1.390653122E1,1.223929825E1,3.878434753E-1,1.852950228E1
9.235364833E0,-1.218615875E1,1.054152878E1,1.403182068E0,1.617390534E1
9.245285833E0,-9.994865570E0,8.762478333E0,1.661395111E0,1.339546931E1
9.255205833E0,-7.944429474E0,7.570956116E0,1.427431641E0,1.106665700E1
9.265126833E0,-6.363566895E0,6.577322388E0,1.235830078E0,9.234902782E0
9.275047833E0,-4.998705139E0,5.560636597E0,1.082848206E0,7.555150076E0
9.284967833E0,-3.701802063E0,4.492607574E0,8.714877319E-1,5.886115204E0
9.294888833E0,-2.595752106E0,3.453318787E0,6.248007202E-1,4.365056194E0
9.304809833E0,-1.685494995E0,2.448009338E0,3.532653809E-1,2.993065240E0
9.314730833E0,-1.000968475E0,1.578916626E0,1.199006653E-1,1.873310377E0
9.324650833E0,-5.066963196E-1,8.825646973E-1,-5.658233643E-2,1.019246372E0
9.334571833E0,-1.490899658E-1,3.656895447E-1,-2.195933533E-1,4.518604893E-1
9.344492833E0,9.101074219E-2,5.493576050E-2,-3.493734741E-1,3.651886052E-1
9.354413833E0,2.321672058E-1,-1.372645569E-1,-4.264631653E-1,5.045929066E-1
9.364333833E0,2.856060791E-1,-2.880010986E-1,-4.595443726E-1,6.129408581E-1
9.374254833E0,2.734812927E-1,-3.641926575E-1,-4.427792358E-1,6.352021418E-1
9.384175833E0,2.627037048E-1,-5.020559692E-1,-4.210743713E-1,7.059582558E-1
9.394095833E0,3.118016052E-1,-6.616241455E-1,-3.603007507E-1,8.153424936E-1
9.404016833E0,3.716770935E-1,-7.653584290E-1,-2.856060791E-1,8.974899548E-1
9.413937833E0,4.031117249E-1,-8.393046570E-1,-2.384541321E-1,9.611408549E-1
9.423857833E0,4.231700134E-1,-9.383985901E-1,-2.014810181E-1,1.048932493E0
9.433778833E0,4.800517273E-1,-1.052760773E0,-1.689985657E-1,1.169322633E0
9.443699833E0,5.367837524E-1,-1.142274628E0,-6.885681152E-2,1.263989471E0
9.453620833E0,5.445675659E-1,-1.179397430E0,2.844085693E-3,1.299053587E0
9.463540833E0,6.625222778E-1,-1.263821869E0,6.017486572E-2,1.428216545E0
9.473461833E0,7.598199463E-1,-1.310524750E0,1.043330383E-1,1.518448831E0
9.483382833E0,8.419990540E-1,-1.362466736E0,1.254391479E-1,1.606553140E0
9.493302833E0,9.244775391E-1,-1.383872223E0,1.675016785E-1,1.672667887E0
9.503223833E0,9.394464111E-1,-1.377136230E0,1.743873596E-1,1.676148773E0
9.513144833E0,9.009764099E-1,-1.330583038E0,1.502874756E-1,1.613938053E0
9.523065833E0,6.174659729E-1,-1.239272919E0,9.804611206E-2,1.388047058E0
9.532985833E0,-5.297483826E-1,-1.036444702E0,-3.128494263E-2,1.164401012E0
9.542906833E0,-1.115929413E0,-8.448431396E-1,-1.035845947E-1,1.403491415E0
9.552827833E0,-1.169517975E0,-6.475534058E-1,-1.281335449E-1,1.342950450E0
9.562747833E0,-1.543889465E0,-5.951623535E-1,-9.699829102E-2,1.657474457E0
9.572668833E0,-2.844834137E0,-8.008346558E-1,-1.800755310E-1,2.960885781E0
9.582589833E0,-6.757098541E0,-1.370849304E0,-3.489244080E-1,6.903575650E0
9.592510833E0,-2.713063156E1,-5.848338318E-1,-1.265019379E0,2.716640340E1
9.602430833E0,-6.729241470E1,1.664628387E1,-4.340224457E0,6.945650000E1
9.612351833E0,-5.237279022E1,4.691948044E1,-4.470603333E0,7.045802363E1
9.622272833E0,-3.056703552E1,3.494797531E1,6.461613007E0,4.687704216E1
9.632192833E0,-3.276311874E1,2.272843597E1,1.316392548E1,4.199157875E1
9.642113833E0,-2.441782288E1,2.151775360E1,1.045351181E1,3.418361747E1
9.652034833E0,-1.816547470E1,1.964859055E1,6.277196503E0,2.748553761E1
9.661955833E0,-1.669972275E1,1.759396317E1,3.409609680E0,2.449599392E1
9.671875833E0,-1.711525864E1,1.654958496E1,1.367107086E0,2.384721834E1
9.681796833E0,-1.713995728E1,1.562076645E1,1.181044006E-1,2.319052454E1
9.691717833E0,-1.637115601E1,1.422791290E1,-1.508862305E-1,2.169034396E1
9.701637833E0,-1.373139542E1,1.201955521E1,1.676513672E-1,1.824963108E1
9.711558833E0,-1.149055527E1,1.010069550E1,7.572752380E-1,1.531764915E1
9.721479833E0,-9.282047882E0,8.408015442E0,1.045575714E0,1.256759186E1
9.731400833E0,-7.163653107E0,6.938970337E0,9.901908875E-1,1.002236066E1
9.741320833E0,-5.309309235E0,5.520370331E0,8.250842285E-1,7.703506807E0
9.751241833E0,-3.701502686E0,4.187691650E0,5.284011841E-1,5.614008488E0
9.761162833E0,-2.495161285E0,2.940485229E0,2.267784119E-1,3.863122011E0
9.771082833E0,-1.555116119E0,1.871258698E0,-1.193019104E-1,2.436027135E0
9.781003833E0,-7.695497131E-1,9.645941162E-1,-4.025129700E-1,1.297946556E0
9.790924833E0,-1.544787598E-1,2.915936279E-1,-5.965095520E-1,6.816994768E-1
9.800845833E0,2.224374390E-1,-1.068777466E-1,-7.620652771E-1,8.010273113E-1
9.810765833E0,3.309617615E-1,-3.430865479E-1,-8.695417786E-1,9.916385287E-1
9.820686833E0,3.216810608E-1,-4.541555786E-1,-9.160949707E-1,1.071898311E0
9.830607833E0,3.001258850E-1,-5.257067871E-1,-9.752220154E-1,1.147824530E0
9.840527833E0,3.579057312E-1,-6.456074524E-1,-1.038240967E0,1.273911221E0
9.850448833E0,3.930825806E-1,-7.635621643E-1,-1.037193146E0,1.346592260E0
9.860369833E0,4.625381470E-1,-8.138575745E-1,-1.001866608E0,1.371146377E0
9.870290833E0,5.469625854E-1,-8.879534912E-1,-9.617500305E-1,1.418658731E0
9.880210833E0,5.774990845E-1,-9.951306152E-1,-9.220825195E-1,1.474457970E0
9.890131833E0,5.966592407E-1,-1.052012329E0,-8.322692871E-1,1.468129543E0
9.900052833E0,6.625222778E-1,-1.148860931E0,-6.706054688E-1,1.486112009E0
9.909972833E0,8.623567200E-1,-1.253343658E0,-5.295986938E-1,1.610901678E0
9.919893833E0,9.565109253E-1,-1.288071442E0,-4.569996643E-1,1.668199593E0
9.929814833E0,9.924362183E-1,-1.337019653E0,-2.862048340E-1,1.689516028E0
9.939735833E0,1.024768982E0,-1.376387787E0,-1.480421448E-1,1.722356317E0
9.949655833E0,1.049168243E0,-1.357077942E0,-6.316864014E-2,1.716509487E0
9.959576833E0,1.100511475E0,-1.339714050E0,1.781295776E-2,1.733861743E0
9.969497833E0,1.079555054E0,-1.257534943E0,7.918533325E-2,1.659247891E0
9.979417833E0,9.906399536E-1,-1.218017120E0,2.112107849E-1,1.584153786E0
9.989338833E0,8.042774963E-1,-1.137484589E0,3.237767029E-1,1.430232440E0
9.999259833E0,2.203417969E-1,-9.862989807E-1,3.716770935E-1,1.076791553E0
1.000918083E1,-4.839436340E-1,-7.827223206E-1,3.520678711E-1,9.852956195E-1
1.001910083E1,-7.481442261E-1,-5.575904846E-1,4.532574463E-1,1.037337575E0
1.002902183E1,-8.391549683E-1,-3.532653809E-1,5.206173706E-1,1.048818353E0
1.003894283E1,-9.562115479E-1,-2.844085693E-1,6.400689697E-1,1.185291966E0
1.004886283E1,-1.446292419E0,-3.643423462E-1,8.647517395E-1,1.724036739E0
1.005878383E1,-3.325334930E0,-7.737409973E-1,7.018904114E-1,3.485567053E0
1.006870483E1,-1.500719238E1,-1.657054138E0,8.660989380E-1,1.512321986E1
1.007862583E1,-6.573340668E1,1.772913208E0,1.619781647E0,6.577725798E1
1.008854583E1,-7.345973969E1,3.413082458E1,-5.761219482E0,8.120614627E1
1.009846683E1,-3.603875702E1,5.333468994E1,-3.281476135E0,6.445268997E1
1.010838783E1,-3.945270767E1,3.144451080E1,1.059841049E1,5.155191274E1
1.011830783E1,-3.240326706E1,2.234388565E1,1.317605026E1,4.150697824E1
1.012822883E1,-1.808164902E1,1.952210358E1,8.556207275E0,2.795115815E1
1.013814983E1,-1.347767303E1,1.664688263E1,5.488336945E0,2.211081668E1
1.014807083E1,-1.216909424E1,1.422132660E1,3.317401428E0,1.900889626E1
1.015799083E1,-1.280691788E1,1.260079651E1,1.889371033E0,1.806562872E1
1.016791183E1,-1.322425003E1,1.147947830E1,1.263971558E0,1.755724452E1
1.017783317E1,-1.180130905E1,9.973011017E0,1.033001862E0,1.548544274E1
1.018775317E1,-9.280550995E0,7.915689240E0,1.356329498E0,1.227299444E1
1.019767417E1,-7.062164154E0,6.198609924E0,1.625320129E0,9.536172873E0
1.020759517E1,-5.328619080E0,4.838089142E0,1.491648102E0,7.350258628E0
1.021751617E1,-4.108506317E0,3.654799805E0,1.212778015E0,5.631004909E0
1.022743617E1,-3.120411072E0,2.620450745E0,9.572593689E-1,4.185698611E0
1.023735717E1,-2.168989563E0,1.667682037E0,6.640191650E-1,2.815421914E0
1.024727817E1,-1.298399963E0,8.093669128E-1,4.420307922E-1,1.592579193E0
1.025719817E1,-6.135740662E-1,2.010319519E-1,2.622546387E-1,6.968963164E-1
1.026711917E1,-2.149530029E-1,-1.686991882E-1,1.757345581E-1,3.248797385E-1
1.027704017E1,-1.930984497E-2,-3.285667419E-1,8.622070312E-2,3.402395974E-1
1.028696017E1,4.969665527E-2,-4.572990417E-1,1.451980591E-2,4.602205948E-1
1.029688117E1,1.317260742E-1,-6.417155457E-1,-9.400451660E-2,6.618062022E-1
1.030680217E1,2.186952209E-1,-8.583151245E-1,-2.737806702E-1,9.270859227E-1
1.031672317E1,2.803669739E-1,-9.403445435E-1,-4.013154602E-1,1.060145084E0
1.032664317E1,3.667373657E-1,-1.025068359E0,-5.126838684E-1,1.203372837E0
1.033656417E1,4.355941772E-1,-1.122665405E0,-6.539900208E-1,1.370336764E0
1.034648517E1,5.556445312E-1,-1.226549377E0,-8.565188599E-1,1.595866153E0
1.035640517E1,6.511459351E-1,-1.316661987E0,-9.659413147E-1,1.758019465E0
1.036632617E1,7.447013855E-1,-1.361568604E0,-9.479786682E-1,1.818546884E0
1.037624717E1,8.903485107E-1,-1.439556427E0,-9.071136475E-1,1.920390155E0
1.038616817E1,1.038989410E0,-1.493594055E0,-7.900570679E-1,1.983560528E0
1.039608817E1,1.118923187E0,-1.553469543E0,-5.885760498E-1,2.002917494E0
1.040600917E1,1.134041748E0,-1.606908417E0,-3.628454590E-1,1.999965543E0
1.041593017E1,1.075962524E0,-1.663939819E0,-1.507365417E-1,1.987237424E0
1.042585117E1,1.026714935E0,-1.694925385E0,-1.616638184E-2,1.981710617E0
1.043577117E1,9.241781616E-1,-1.671723633E0,6.436614990E-3,1.910184967E0
1.044569217E1,6.411167908E-1,-1.546733551E0,-2.275268555E-2,1.674494880E0
1.045561317E1,-3.400927734E-1,-1.293909302E0,-2.023791504E-1,1.353078599E0
1.046553317E1,-1.068328400E0,-1.137783966E0,-3.332070923E-1,1.595902531E0
1.047545417E1,-1.426234131E0,-1.099763031E0,-3.210823059E-1,1.829403282E0
1.048537517E1,-1.779798889E0,-1.040635986E0,-2.151026917E-1,2.072890858E0
1.049529617E1,-2.507136383E0,-1.103654938E0,-1.483415222E-1,2.743317749E0
1.050521617E1,-3.758833466E0,-1.271605682E0,-1.817221069E-1,3.972257917E0
1.051513717E1,-6.618935852E0,-1.537303162E0,-3.707789612E-1,6.805225188E0
1.052505817E1,-1.485271362E1,1.455573120E0,-1.791624298E0,1.503102501E1
1.053497817E1,-4.367183395E1,1.637325165E1,-4.394561462E0,4.684682082E1
1.054489917E1,-6.349331497E1,2.751353531E1,1.558558960E0,6.921578416E1
1.055482017E1,-4.221581177E1,2.407398788E1,1.041100021E1,4.970030766E1
1.056474017E1,-3.330948257E1,3.107283371E1,1.467518280E1,4.785816142E1
1.057466117E1,-3.341785721E1,2.862901566E1,1.371058868E1,4.609071446E1
1.058458217E1,-2.778477127E1,2.411754730E1,8.288114777E0,3.771395563E1
1.059450317E1,-2.008747787E1,2.201022949E1,1.699116669E0,2.984700935E1
1.060442317E1,-1.517484375E1,1.919608154E1,-9.912387085E-1,2.448975262E1
1.061434417E1,-1.363694183E1,1.513562531E1,4.951702881E-1,2.037887459E1
1.062426517E1,-1.517723877E1,1.231384323E1,2.263293457E0,1.967490303E1
1.063418517E1,-1.565100357E1,1.048988617E1,3.025209045E0,1.908254476E1
1.064410617E1,-1.320598801E1,8.802744598E0,2.832709351E0,1.612174538E1
1.065402717E1,-1.033226395E1,7.355104980E0,2.291135559E0,1.288807781E1
1.066394817E1,-8.195307770E0,6.018085327E0,1.850901031E0,1.033471118E1
1.067386817E1,-6.460864563E0,4.823120270E0,1.388811951E0,8.181323773E0
1.068378917E1,-5.018314362E0,3.821553040E0,9.774673462E-1,6.383039173E0
1.069371017E1,-3.855083313E0,2.910098419E0,6.385720825E-1,4.872177590E0
1.070363017E1,-2.832110596E0,2.000589752E0,3.489244080E-1,3.484961696E0
1.071355117E1,-1.946402435E0,1.207089844E0,1.330732727E-1,2.294178900E0
1.072347217E1,-1.173709259E0,5.565426636E-1,-7.544311523E-2,1.301162874E0
1.073339317E1,-5.334906006E-1,8.726852417E-2,-2.540217590E-1,5.972897708E-1
1.074331317E1,-2.016307068E-1,-1.384620667E-1,-3.625460815E-1,4.373400817E-1
1.075323417E1,3.293151855E-3,-2.610571289E-1,-4.610412598E-1,5.298308340E-1
1.076315517E1,1.279838562E-1,-3.637435913E-1,-5.760021973E-1,6.931578456E-1
1.077307517E1,2.007325745E-1,-4.240681458E-1,-6.041436768E-1,7.649293698E-1
1.078299617E1,2.302212524E-1,-4.818479919E-1,-5.785469055E-1,7.873346393E-1
1.079291717E1,2.863545227E-1,-5.282514954E-1,-5.318440247E-1,8.024379238E-1
1.080283817E1,3.697311401E-1,-5.581892395E-1,-4.975653076E-1,8.341747889E-1
1.081275817E1,4.323010254E-1,-5.843847656E-1,-4.673281860E-1,8.641674400E-1
1.082267917E1,4.483177185E-1,-6.262976074E-1,-3.623963928E-1,8.512159628E-1
1.083260017E1,4.462220764E-1,-6.950047302E-1,-2.697390747E-1,8.688526256E-1
1.084252017E1,5.682183838E-1,-7.966433716E-1,-2.387535095E-1,1.007231866E0
1.085244117E1,7.758366394E-1,-9.409432983E-1,-1.736389160E-1,1.231847091E0
1.086236217E1,8.367599487E-1,-1.041683807E0,-1.077758789E-2,1.336184315E0
1.087228317E1,9.069639587E-1,-1.135688324E0,1.796264648E-1,1.464458008E0
1.088220317E1,9.400451660E-1,-1.193318481E0,2.505789185E-1,1.539637524E0
1.089212417E1,9.563612366E-1,-1.219663696E0,3.384461975E-1,1.586427488E0
1.090204517E1,9.668394470E-1,-1.206790466E0,4.031117249E-1,1.598005259E0
1.091196517E1,9.497749329E-1,-1.160985718E0,4.553530884E-1,1.567579885E0
1.092188617E1,9.187893677E-1,-1.070573730E0,4.469705200E-1,1.479893462E0
1.093180717E1,8.452922058E-1,-9.292675781E-1,3.344046021E-1,1.299955223E0
1.094172817E1,6.902146912E-1,-7.307803345E-1,1.697470093E-1,1.019436248E0
1.095164817E1,9.101074219E-2,-4.680766296E-1,1.317260742E-2,4.770243222E-1
1.096156917E1,-2.721340942E-1,-1.109193420E-1,-4.236190796E-2,2.969083982E-1
1.097149017E1,-1.812730408E-1,2.320175171E-2,-6.301895142E-2,1.933122470E-1
1.098141017E1,-3.462300110E-1,1.643582153E-1,-4.790039062E-3,3.832907355E-1
1.099133117E1,-8.623567200E-1,4.261637878E-1,1.916015625E-2,9.621028002E-1
1.100125217E1,-2.409539337E0,2.612816620E0,-4.409829712E-1,3.581501988E0
1.101117317E1,-1.258672577E1,1.244661713E1,-3.309318237E0,1.800820731E1
1.102109317E1,-5.935966095E1,1.734054016E1,2.406096497E0,6.188742184E1
1.103101417E1,-7.682818497E1,2.153197403E1,1.567959412E1,8.131448569E1
1.104093517E1,-4.182198074E1,3.746304520E1,1.634361328E1,5.847795759E1
1.105085517E1,-3.468557098E1,3.641866699E1,1.684626801E1,5.303965390E1
1.106077617E1,-2.909035629E1,2.571861786E1,1.199440750E1,4.063941369E1
1.107069717E1,-2.041649368E1,2.036245605E1,5.078788605E0,2.927895020E1
1.108061817E1,-1.588122482E1,1.628179184E1,7.578739929E-1,2.275707407E1
1.109053817E1,-1.345147751E1,1.336121521E1,-8.177494812E-1,1.897717137E1
1.110045917E1,-1.413735123E1,1.213945587E1,-2.960842896E-1,1.863648986E1
1.111038017E1,-1.377839767E1,1.079435303E1,7.348219299E-1,1.751862617E1
1.112030017E1,-1.238734039E1,9.118887177E0,1.537452850E0,1.545846262E1
1.113022117E1,-1.063658112E1,7.523953857E0,1.947899323E0,1.317349806E1
1.114014217E1,-8.527916107E0,6.110293579E0,1.829495544E0,1.064932367E1
1.115006317E1,-6.644832001E0,4.877606964E0,1.453178101E0,8.369980203E0
1.115998317E1,-5.119054871E0,3.693120117E0,1.056353302E0,6.399979786E0
1.116990417E1,-3.768712921E0,2.601889343E0,6.400689697E-1,4.624144626E0
1.117982517E1,-2.595602417E0,1.584754486E0,2.612068176E-1,3.052347898E0
1.118974517E1,-1.573228455E0,7.557783508E-1,-3.353027344E-2,1.745672640E0
1.119966617E1,-7.075785828E-1,1.764830017E-1,-2.436932373E-1,7.688953730E-1
1.120958717E1,-1.841171265E-1,-1.709445190E-1,-3.510200500E-1,4.316667932E-1
1.121950817E1,5.837860107E-2,-2.962339783E-1,-4.188290405E-1,5.163142417E-1
1.122942817E1,2.019300842E-1,-4.064048767E-1,-4.794529724E-1,6.601634915E-1
1.123934917E1,2.709365845E-1,-5.322930908E-1,-4.611909485E-1,7.546122569E-1
1.124927017E1,3.528163147E-1,-6.390211487E-1,-3.433859253E-1,8.066853625E-1
1.125919017E1,4.096980286E-1,-7.247927856E-1,-2.389031982E-1,8.661707654E-1
1.126911117E1,4.629872131E-1,-8.220904541E-1,-1.230441284E-1,9.514881669E-1
1.127903217E1,5.336402893E-1,-8.801696777E-1,-7.843688965E-2,1.032290156E0
1.128895317E1,6.306385803E-1,-9.238787842E-1,-6.346801758E-2,1.120395116E0
1.129887317E1,6.737489319E-1,-9.502239990E-1,4.490661621E-4,1.164844828E0
1.130879417E1,6.551875305E-1,-9.984237671E-1,-8.382568359E-3,1.194232384E0
1.131871517E1,8.443940735E-1,-1.094523926E0,1.960922241E-2,1.382522512E0
1.132863517E1,9.744735718E-1,-1.156944122E0,6.182144165E-2,1.513915564E0
1.133855617E1,1.053958282E0,-1.203497314E0,8.307723999E-2,1.601916251E0
1.134847717E1,1.086141357E0,-1.234183502E0,1.004411316E-1,1.647118814E0
1.135839817E1,1.050066376E0,-1.199156342E0,1.166075134E-1,1.598190426E0
1.136831817E1,1.010847931E0,-1.153800659E0,1.926493835E-1,1.546021761E0
1.137823917E1,9.886940002E-1,-1.099613342E0,1.995350647E-1,1.492139260E0
1.138816017E1,9.310638428E-1,-1.005908203E0,1.874102783E-1,1.383421051E0
1.139808017E1,8.081694031E-1,-8.502319336E-1,1.869612122E-1,1.187849578E0
1.140800117E1,6.688092041E-1,-6.981481934E-1,1.633103943E-1,9.805034096E-1
1.141792217E1,4.219725037E-1,-5.536985779E-1,1.128652954E-1,7.052527801E-1
1.142784317E1,-1.167572021E-2,-3.983216858E-1,8.143066406E-2,4.067277233E-1
1.143776317E1,-1.477427673E-1,-1.083746338E-1,5.149291992E-2,1.903273689E-1
1.144768417E1,-1.384620667E-1,4.954696655E-2,6.107299805E-2,1.592374230E-1
1.145760517E1,-1.338217163E-1,5.583389282E-2,8.457412720E-2,1.678644046E-1
1.146752517E1,-4.577481079E-1,2.315684509E-1,2.665956116E-1,5.781267144E-1
1.147744617E1,-1.923350372E0,3.793112183E0,-1.073268127E0,4.386214901E0
1.148736717E1,-6.170767822E0,1.197210388E1,-3.604953461E0,1.394293141E1
1.149728817E1,-2.044089294E1,3.888014832E0,5.543123016E0,2.153306705E1
1.150720817E1,-7.066370407E1,-4.225562897E0,2.850671997E1,7.631413721E1
1.151712917E1,-6.253904938E1,4.985831909E0,2.657842987E1,6.813519026E1
1.152705017E1,-3.234473877E1,2.156400742E1,1.805560318E1,4.286249349E1
1.153697017E1,-3.222992752E1,3.748220535E1,1.703337891E1,5.228594403E1
1.154689117E1,-3.324751144E1,3.049264023E1,1.389425674E1,4.720432709E1
1.155681217E1,-2.586366623E1,2.428609680E1,8.882528687E0,3.657380271E1
1.156673317E1,-1.806293793E1,1.894610138E1,5.429060211E0,2.673385829E1
1.157665317E1,-1.449540665E1,1.444361435E1,4.798122253E0,2.101801100E1
1.158657417E1,-1.469583984E1,1.199515594E1,5.934109955E0,1.987624552E1
1.159649517E1,-1.352602249E1,1.031130753E1,6.022725677E0,1.804299232E1
1.160641517E1,-1.144969025E1,8.888516235E0,5.398673401E0,1.546760492E1
1.161633617E1,-9.657317505E0,7.342082062E0,5.069358215E0,1.314794064E1
1.162625717E1,-7.948770447E0,5.913153534E0,4.593048706E0,1.091990992E1
1.163617817E1,-6.501130829E0,4.546046448E0,3.984564056E0,8.877386500E0
1.164609817E1,-5.345833282E0,3.347937927E0,3.175346832E0,7.061830453E0
1.165601917E1,-4.275558929E0,2.331102448E0,2.320773926E0,5.394481847E0
1.166594017E1,-3.364553375E0,1.344354401E0,1.684147797E0,3.995480193E0
1.167586017E1,-2.434237976E0,5.846841431E-1,1.140178986E0,2.750886801E0
1.168578117E1,-1.547931061E0,5.867797852E-2,6.439608765E-1,1.677563496E0
1.169570217E1,-8.771759033E-1,-3.426374817E-1,3.335064697E-1,9.990318186E-1
1.170562317E1,-3.800596619E-1,-5.107379150E-1,1.299298096E-1,6.497540457E-1
1.171554317E1,-6.256988525E-2,-4.655319214E-1,-7.334747314E-2,4.754101515E-1
1.172546417E1,1.386117554E-1,-4.532574463E-1,-1.770817566E-1,5.059777464E-1
1.173538517E1,3.062631226E-1,-5.285508728E-1,-2.686912537E-1,6.673515679E-1
1.174530517E1,4.231700134E-1,-6.255491638E-1,-3.495231628E-1,8.321965261E-1
1.175522617E1,4.933740234E-1,-6.695576477E-1,-3.297642517E-1,8.946897967E-1
1.176514717E1,5.158273315E-1,-6.658154297E-1,-3.588038635E-1,9.154934379E-1
1.177506817E1,5.343887329E-1,-6.659651184E-1,-3.712280273E-1,9.310698712E-1
1.178498817E1,6.646179199E-1,-7.051835632E-1,-3.957769775E-1,1.046728357E0
1.179490917E1,7.186555481E-1,-6.972500610E-1,-3.760180664E-1,1.069585448E0
1.180483017E1,7.128176880E-1,-7.226971436E-1,-3.107537842E-1,1.061587553E0
1.181475117E1,7.408094788E-1,-7.027885437E-1,-1.793270874E-1,1.036758711E0
1.182467117E1,8.340655518E-1,-7.993377686E-1,-1.263372803E-1,1.162139114E0
1.183459217E1,9.008267212E-1,-8.788224792E-1,-9.580078125E-2,1.262139264E0
1.184451317E1,8.795709229E-1,-8.644523621E-1,-2.185455322E-2,1.233450654E0
1.185443317E1,8.030799866E-1,-7.911048889E-1,-1.930984497E-2,1.127456110E0
1.186435417E1,7.500901794E-1,-6.979985046E-1,-6.331832886E-2,1.026570212E0
1.187427517E1,7.216493225E-1,-6.182144165E-1,-1.306782532E-1,9.591890404E-1
1.188419617E1,6.623725891E-1,-5.176235962E-1,-1.851649475E-1,8.607889938E-1
1.189411617E1,4.936734009E-1,-3.888912964E-1,-2.264790344E-1,6.680139371E-1
1.190403717E1,-8.083190918E-2,-1.999841309E-1,-2.511776733E-1,3.310855988E-1
1.191395817E1,-1.886077881E-1,5.568420410E-2,-1.760339355E-1,2.639347927E-1
1.192387817E1,-1.839674377E-1,1.972897339E-1,-7.020401001E-2,2.787397716E-1
1.193379917E1,-3.996688843E-1,7.987390137E-1,-1.832189941E-1,9.117502009E-1
1.194372017E1,-1.373394012E0,3.264561310E0,-9.093589783E-1,3.656570170E0
1.195364117E1,-4.420756989E0,8.201594696E0,-9.874964905E-1,9.369332806E0
1.196356117E1,-8.328680420E0,9.787846069E0,2.676434326E-1,1.285458989E1
1.197348217E1,-3.148223236E1,9.722282410E-1,1.175191177E1,3.361820359E1
1.198340317E1,-6.804744461E1,-2.789898376E0,2.996393967E1,7.440481121E1
1.199332317E1,-4.206956589E1,1.983225861E0,1.964829117E1,4.647404549E1
1.200324417E1,-2.583298004E1,7.904312897E0,1.420845337E1,3.052378036E1
1.201316517E1,-2.853022110E1,1.491453506E1,1.596370331E1,3.593406038E1
1.202308617E1,-3.169598785E1,1.701556595E1,1.564022598E1,3.922730936E1
1.203300617E1,-2.463726654E1,1.336196365E1,1.078582077E1,3.003116556E1
1.204292717E1,-1.985126907E1,1.125554398E1,7.093598785E0,2.389726549E1
1.205284817E1,-2.062994980E1,1.037073395E1,6.318510590E0,2.393889152E1
1.206276817E1,-2.171489365E1,9.232500916E0,5.809119873E0,2.430064923E1
1.207268917E1,-2.029449738E1,8.153544617E0,4.469705200E0,2.232319821E1
1.208261017E1,-1.791669205E1,7.781867523E0,3.746708679E0,1.988977481E1
1.209253117E1,-1.542961395E1,7.320377197E0,3.321892090E0,1.739815726E1
1.210245117E1,-1.323547668E1,6.452182617E0,3.003055115E0,1.502753618E1
1.211237217E1,-1.110750183E1,6.293512573E0,2.119143219E0,1.294123894E1
1.212229317E1,-9.485474854E0,6.530320129E0,1.058598633E0,1.156459879E1
1.213221317E1,-8.102800140E0,5.607189789E0,2.646496582E-1,9.857280907E0
1.214213417E1,-7.458539886E0,4.256548462E0,2.963836670E-2,8.587718002E0
1.215205517E1,-6.587201843E0,3.016377411E0,2.186952209E-1,7.248281756E0
1.216197617E1,-5.244943085E0,2.016756134E0,4.740641785E-1,5.639279219E0
1.217189617E1,-4.040847015E0,1.325942688E0,5.764512634E-1,4.291720479E0
1.218181679E1,-3.036735077E0,7.905061340E-1,5.352868652E-1,3.183267488E0
1.219173779E1,-2.171683960E0,3.629951477E-1,4.028123474E-1,2.238355308E0
1.220165779E1,-1.358874207E0,4.101470947E-2,2.335144043E-1,1.379402150E0
1.221157879E1,-6.379733276E-1,-1.968406677E-1,4.730163574E-2,6.693232851E-1
1.222149979E1,-1.724414062E-1,-3.119512939E-1,-9.669891357E-2,3.693241507E-1
1.223142079E1,6.586303711E-2,-2.209405518E-1,-1.926493835E-1,3.004437585E-1
1.224134079E1,1.736389160E-1,-1.872605896E-1,-2.118095398E-1,3.317834877E-1
1.225126179E1,1.966909790E-1,-2.336640930E-1,-1.923500061E-1,3.609498226E-1
1.226118279E1,2.344125366E-1,-2.905458069E-1,-1.562750244E-1,4.047072849E-1
1.227110279E1,3.047662354E-1,-3.442840576E-1,-4.251159668E-2,4.617588184E-1
1.228102379E1,3.769161987E-1,-3.665876770E-1,8.547225952E-2,5.326892649E-1
1.229094479E1,3.758683777E-1,-3.444337463E-1,1.990859985E-1,5.473087591E-1
1.230086579E1,3.356021118E-1,-3.035687256E-1,3.884422302E-1,5.963808471E-1
1.231078579E1,3.635939026E-1,-2.832110596E-1,5.580395508E-1,7.237521471E-1
1.232070679E1,4.061054993E-1,-2.718347168E-1,6.774911499E-1,8.353502547E-1
1.233062779E1,4.553530884E-1,-2.541714478E-1,7.262896729E-1,8.941175811E-1
1.234054779E1,4.746629333E-1,-2.384541321E-1,6.471043396E-1,8.372032607E-1
1.235046879E1,4.592449951E-1,-2.031275940E-1,6.011499023E-1,7.832930423E-1
1.236038979E1,4.236190796E-1,-1.499880981E-1,5.257067871E-1,6.916047861E-1
1.237031079E1,4.222718811E-1,-1.172062683E-1,4.748126221E-1,6.461407563E-1
1.238023079E1,4.141886902E-1,-1.269360352E-1,4.496649170E-1,6.243905554E-1
1.239015179E1,4.086502075E-1,-1.432521057E-1,4.569996643E-1,6.295751354E-1
1.240007279E1,4.013154602E-1,-1.910028076E-1,4.451742554E-1,6.290598451E-1
1.240999379E1,3.703298950E-1,-1.670526123E-1,3.674858093E-1,5.478107579E-1
1.241991379E1,2.044747925E-1,4.281097412E-2,2.266287231E-1,3.082260508E-1
1.242983479E1,-2.122586060E-1,2.380050659E-1,1.267863464E-1,3.431834857E-1
1.243975579E1,-4.260140991E-1,7.717950439E-1,-1.519340515E-1,8.945610983E-1
1.244967579E1,-1.112336884E0,3.111130371E0,-1.076112213E0,3.474829927E0
1.245959679E1,-2.909948730E0,8.573720856E0,-2.655477905E0,9.435467865E0
1.246951779E1,-4.919370117E0,1.013347733E1,-2.577639771E-1,1.126738689E1
1.247943779E1,-1.048150360E1,9.848320312E0,7.418872375E0,1.618304662E1
1.248935879E1,-3.871204788E1,9.275162201E0,2.380005753E1,4.637988813E1
1.249927979E1,-6.725454346E1,1.087728058E1,3.743849625E1,7.773757039E1
1.250920079E1,-4.420712082E1,1.328652054E1,2.114981873E1,5.077515132E1
1.251912079E1,-3.238126282E1,1.587628510E1,1.433553909E1,3.880863681E1
1.252904179E1,-3.026182022E1,1.406789566E1,1.199246155E1,3.546128291E1
1.253896279E1,-2.577145798E1,1.080767532E1,8.965306549E0,2.934877534E1
1.254888379E1,-2.119831787E1,7.539521484E0,6.349196777E0,2.337788195E1
1.255880379E1,-2.016816010E1,4.690046997E0,5.371579742E0,2.139170614E1
1.256872479E1,-2.109413452E1,3.035537567E0,4.992268524E0,2.188834723E1
1.257864579E1,-2.080957626E1,1.793270874E0,3.878584442E0,2.124376854E1
1.258856579E1,-1.824166626E1,1.493294678E0,2.614163818E0,1.848843339E1
1.259848679E1,-1.580623077E1,1.323847046E0,1.686393127E0,1.595096938E1
1.260840779E1,-1.358978989E1,2.316882019E0,1.177900543E0,1.383610426E1
1.261832779E1,-1.170071823E1,4.756508789E0,8.758287048E-1,1.266089487E1
1.262824879E1,-1.092143875E1,6.225404205E0,6.030958557E-1,1.258559520E1
1.263816979E1,-9.628726959E0,7.773934021E0,-3.263214111E-2,1.237527769E1
1.264809079E1,-8.820557556E0,6.662046204E0,-7.256909180E-1,1.107753233E1
1.265801079E1,-8.655450897E0,4.253105621E0,-8.044271851E-1,9.677439783E0
1.266793179E1,-6.005511475E0,3.153192902E0,-9.630972290E-1,6.851010861E0
1.267785279E1,-3.730691986E0,2.458487549E0,-9.803114319E-1,4.574192194E0
1.268777379E1,-2.302960968E0,1.899400177E0,-8.884025574E-1,3.114580125E0
1.269769379E1,-1.224603424E0,1.427880707E0,-7.857160950E-1,2.038589375E0
1.270761479E1,-3.686833191E-1,9.692344666E-1,-6.493496704E-1,1.223518629E0
1.271753579E1,9.729766846E-2,6.008505249E-1,-5.177732849E-1,7.991103579E-1
1.272745579E1,2.646496582E-1,3.842509460E-1,-4.209246826E-1,6.283834972E-1
1.273737679E1,3.342549133E-1,2.469863892E-1,-3.472778320E-1,5.415999595E-1
1.274729779E1,3.222798157E-1,1.675016785E-1,-2.463876343E-1,4.388940171E-1
1.275721879E1,2.841091919E-1,9.669891357E-2,-1.327738953E-1,3.281731556E-1
1.276713879E1,2.371069336E-1,3.068618774E-2,-4.071533203E-2,2.425264487E-1
1.277705979E1,2.065704346E-1,-4.505630493E-2,5.433700562E-2,2.182977903E-1
1.278698079E1,1.866618347E-1,-7.529342651E-2,1.451980591E-1,2.481818224E-1
1.279690079E1,1.833686829E-1,-1.008901978E-1,2.399510193E-1,3.184013152E-1
1.280682179E1,2.478845215E-1,-1.489402771E-1,3.167413330E-1,4.288997717E-1
1.281674279E1,2.797682190E-1,-1.796264648E-1,3.665876770E-1,4.948964014E-1
1.282666379E1,3.125500488E-1,-2.143542480E-1,3.754193115E-1,5.334556553E-1
1.283658379E1,3.405418396E-1,-2.502795410E-1,3.549119568E-1,5.518795976E-1
1.284650479E1,3.805087280E-1,-2.532733154E-1,3.535647583E-1,5.778774115E-1
1.285642579E1,4.221221924E-1,-2.799179077E-1,3.520678711E-1,6.168411191E-1
1.286634579E1,4.569996643E-1,-2.427951050E-1,3.251239014E-1,6.111494968E-1
1.287626679E1,5.370831299E-1,-1.025367737E-1,2.165995789E-1,5.881219737E-1
1.288618779E1,6.322851562E-1,-5.224136353E-2,1.348695374E-1,6.486165824E-1
1.289610879E1,7.210505676E-1,-9.475296021E-2,7.619155884E-2,7.312299216E-1
1.290602879E1,6.923103333E-1,-1.176553345E-1,7.993377686E-2,7.067713802E-1
1.291594979E1,7.289840698E-1,1.407073975E-2,1.122665405E-2,7.292062791E-1
1.292587079E1,5.797444153E-1,1.781295776E-2,-8.068222046E-2,5.856026889E-1
1.293579079E1,1.800755310E-1,-2.784210205E-2,-1.420545959E-1,2.310452071E-1
1.294571179E1,-1.106199646E-1,4.161346436E-2,-1.272354126E-1,1.736585938E-1
1.295563279E1,-1.297801208E-1,1.555265808E-1,-2.514770508E-2,2.041171335E-1
1.296555379E1,-4.213737488E-1,1.510508881E0,-5.054988098E-1,1.647641333E0
1.297547379E1,-3.628454590E0,1.421653656E1,-6.356381836E0,1.598997137E1
1.298539479E1,-6.089486847E0,2.499502258E1,-6.933880920E0,2.664416838E1
1.299531579E1,-2.910846863E0,1.217463272E1,6.311924286E0,1.401909767E1
1.300523579E1,-1.058972855E1,1.411175446E1,1.439736053E1,2.277208719E1
1.301515679E1,-5.538946701E1,2.255240204E1,4.060052078E1,7.228420423E1
1.302507779E1,-7.694584030E1,2.714125946E1,4.891572922E1,9.513179736E1
1.303499879E1,-4.139357162E1,2.576951202E1,2.040362045E1,5.285644000E1
1.304491879E1,-2.894635574E1,2.526326477E1,1.126766876E1,4.003853665E1
1.305483979E1,-2.431124451E1,1.898157761E1,7.773784332E0,3.180831056E1
1.306476079E1,-1.757989243E1,1.373783203E1,4.956043854E0,2.285482481E1
1.307468079E1,-1.479972382E1,9.719288635E0,4.323758698E0,1.822611549E1
1.308460179E1,-1.419782547E1,7.811505890E0,4.008963318E0,1.669340167E1
1.309452279E1,-1.354039261E1,7.154671783E0,3.340004425E0,1.567441195E1
1.310444379E1,-1.233450027E1,6.963219910E0,2.675536194E0,1.441474323E1
1.311436379E1,-1.074211166E1,6.498586121E0,2.111060028E0,1.273110989E1
1.312428479E1,-9.112300873E0,5.630391541E0,1.538350983E0,1.082136127E1
1.313420579E1,-7.745493164E0,4.339026947E0,1.348845062E0,8.979933307E0
1.314412579E1,-6.494095459E0,3.146756287E0,1.371747437E0,7.345545724E0
1.315404679E1,-5.274880829E0,2.166893921E0,1.167572021E0,5.820912424E0
1.316396779E1,-4.130360870E0,1.453627167E0,7.900570679E-1,4.449393558E0
1.317388879E1,-3.040477295E0,8.238867188E-1,4.107458496E-1,3.176791409E0
1.318380917E1,-2.052232361E0,2.833607483E-1,1.046324158E-1,2.074343009E0
1.319373017E1,-1.219064941E0,-5.897735596E-2,-1.053808594E-1,1.225031749E0
1.320365117E1,-6.038442993E-1,-2.510279846E-1,-1.564247131E-1,6.723925028E-1
1.321357117E1,-1.571731567E-1,-3.510200500E-1,-1.062789917E-1,3.990159155E-1
1.322349217E1,-2.529739380E-2,-3.375480652E-1,-8.562194824E-2,3.491557997E-1
1.323341317E1,3.817062378E-2,-3.692820740E-1,-2.035766602E-2,3.718073174E-1
1.324333417E1,1.511856079E-1,-4.204756165E-1,9.624984741E-2,4.570786204E-1
1.325325417E1,2.074685669E-1,-4.487667847E-1,2.281256104E-1,5.444962143E-1
1.326317517E1,2.806663513E-1,-4.809498596E-1,3.285667419E-1,6.465620404E-1
1.327309617E1,3.393443298E-1,-5.026547241E-1,4.713697815E-1,7.681183612E-1
1.328301617E1,3.656895447E-1,-4.909790039E-1,5.936654663E-1,8.527765893E-1
1.329293717E1,3.969744873E-1,-5.370831299E-1,6.503974915E-1,9.322359835E-1
1.330285817E1,4.601431274E-1,-6.068380737E-1,6.791377258E-1,1.020398058E0
1.331277917E1,5.182223511E-1,-6.704557800E-1,6.738986206E-1,1.082684030E0
1.332269917E1,5.685177612E-1,-7.089257812E-1,6.932084656E-1,1.142946274E0
1.333262017E1,6.357279968E-1,-7.738906860E-1,7.173083496E-1,1.231904277E0
1.334254117E1,6.658154297E-1,-8.098159790E-1,6.921606445E-1,1.256263692E0
1.335246117E1,7.306306458E-1,-8.129594421E-1,7.228468323E-1,1.310431890E0
1.336238217E1,8.376580811E-1,-8.430468750E-1,7.665559387E-1,1.414216073E0
1.337230317E1,8.966354370E-1,-8.225395203E-1,6.927593994E-1,1.400157832E0
1.338222417E1,9.009764099E-1,-7.851173401E-1,5.834866333E-1,1.329896379E0
1.339214417E1,8.640032959E-1,-7.318281555E-1,4.225712585E-1,1.208569656E0
1.340206517E1,7.762857056E-1,-6.274951172E-1,2.463876343E-1,1.028142249E0
1.341198617E1,6.737489319E-1,-5.066963196E-1,7.334747314E-2,8.462024789E-1
1.342190617E1,4.007167053E-1,-2.817141724E-1,-2.694396973E-2,4.905738786E-1
1.343182717E1,-1.227447510E-1,-7.679031372E-2,-3.323089600E-2,1.485507274E-1
1.344174817E1,-1.510359192E-1,-3.921844482E-2,-4.625381470E-2,1.627554935E-1
1.345166917E1,-1.410067749E-1,8.592132568E-2,-4.161346436E-2,1.702852465E-1
1.346158917E1,-5.086422729E-1,1.466051331E0,-5.625302124E-1,1.650594955E0
1.347151017E1,-2.951711884E0,8.628806305E0,-2.844235382E0,9.552935476E0
1.348143117E1,-5.878126373E0,1.318173843E1,-2.383792877E0,1.462850185E1
1.349135117E1,-2.285567139E1,7.354057159E0,9.871072998E0,2.595962160E1
1.350127217E1,-7.534312317E1,1.374950775E1,3.989443909E1,8.635508927E1
1.351119317E1,-6.711428513E1,2.556114532E1,3.315605164E1,7.910134751E1
1.352111417E1,-3.828019592E1,4.117173294E1,1.730132172E1,5.882024079E1
1.353103417E1,-3.561917953E1,3.281012100E1,1.462803085E1,5.058862795E1
1.354095517E1,-2.458068420E1,2.237651779E1,8.506211243E0,3.431142979E1
1.355087617E1,-1.616623215E1,1.610905106E1,3.359763336E0,2.306808612E1
1.356079617E1,-1.344998062E1,1.139475449E1,6.277944946E-1,1.763906274E1
1.357071717E1,-1.430754730E1,9.155710602E0,-4.170327759E-1,1.699137613E1
1.358063817E1,-1.442969330E1,8.188871155E0,-6.888674927E-1,1.660566764E1
1.359055917E1,-1.221070770E1,7.469616852E0,-5.391787720E-1,1.432435940E1
1.360047917E1,-1.107546844E1,6.823859711E0,1.317260742E-2,1.300889066E1
1.361040017E1,-9.522298279E0,5.952371979E0,2.219883728E-1,1.123183758E1
1.362032117E1,-7.825277252E0,4.520000610E0,3.858975220E-1,9.045125012E0
1.363024117E1,-6.458619232E0,3.189567261E0,4.417314148E-1,7.216801808E0
1.364016217E1,-5.168302460E0,2.097588043E0,3.613485718E-1,5.589436349E0
1.365008317E1,-3.877237244E0,1.185384979E0,2.439926147E-1,4.061728522E0
1.366000417E1,-2.718047791E0,4.267625427E-1,1.166075134E-1,2.753816873E0
1.366992417E1,-1.745520172E0,-1.592687988E-1,2.245330811E-2,1.752915107E0
1.367984517E1,-9.460327148E-1,-4.460723877E-1,-3.248245239E-2,1.046428967E0
1.368976617E1,-4.571493530E-1,-4.863386536E-1,-2.694396973E-2,6.680095766E-1
1.369968617E1,-1.314266968E-1,-4.882846069E-1,2.784210205E-2,5.064286886E-1
1.370960717E1,1.496887207E-2,-5.340893555E-1,1.088237000E-1,5.452688368E-1
1.371952817E1,9.639953613E-2,-6.373745728E-1,2.106120300E-1,6.781567988E-1
1.372944917E1,1.944456482E-1,-6.771917725E-1,2.613565063E-1,7.514685823E-1
1.373936917E1,2.231858826E-1,-6.688092041E-1,1.830693054E-1,7.284449603E-1
1.374929017E1,2.737806702E-1,-6.306385803E-1,1.767823792E-1,7.098682159E-1
1.375921117E1,2.999761963E-1,-6.107299805E-1,2.341131592E-1,7.195733449E-1
1.376913217E1,2.947370911E-1,-6.096821594E-1,2.480342102E-1,7.211818479E-1
1.377905217E1,3.439846802E-1,-6.475534058E-1,2.686912537E-1,7.809262854E-1
1.378897317E1,5.288502502E-1,-7.873626709E-1,2.691403198E-1,9.859305627E-1
1.379889417E1,6.595285034E-1,-8.298742676E-1,2.505789185E-1,1.089246961E0
1.380881417E1,6.315367126E-1,-8.153544617E-1,2.122586060E-1,1.052945978E0
1.381873517E1,6.689588928E-1,-8.366102600E-1,2.591111755E-1,1.102071381E0
1.382865617E1,7.661068726E-1,-8.662486267E-1,2.887495422E-1,1.191923958E0
1.383857717E1,8.273295593E-1,-8.677455139E-1,3.041674805E-1,1.236921312E0
1.384849717E1,7.451504517E-1,-8.108638000E-1,3.112028503E-1,1.144376036E0
1.385841817E1,6.520440674E-1,-7.194039917E-1,3.191363525E-1,1.022033062E0
1.386833917E1,6.129753113E-1,-6.451583862E-1,2.106120300E-1,9.145083394E-1
1.387825917E1,5.707630920E-1,-5.466632080E-1,5.927673340E-2,7.925433120E-1
1.388818017E1,4.769082642E-1,-4.334985352E-1,-2.963836670E-2,6.451673467E-1
1.389810117E1,3.820056152E-1,-3.135978699E-1,-1.363664246E-1,5.127062666E-1
1.390802217E1,1.023870850E-1,-1.672023010E-1,-2.106120300E-1,2.877449423E-1
1.391794217E1,-2.025288391E-1,-5.837860107E-2,-2.142045593E-1,3.005155320E-1
1.392786317E1,-1.541793823E-1,9.879455566E-3,-1.437011719E-1,2.109950530E-1
1.393778417E1,-1.317260742E-1,1.085243225E-1,-7.229965210E-2,1.853551372E-1
1.394770417E1,-1.770817566E-1,3.758683777E-1,-8.083190918E-2,4.232833370E-1
1.395762517E1,-1.395847321E0,3.352278900E0,-1.122815094E0,3.800904800E0
1.396754617E1,-1.306797501E1,1.542153076E1,-4.253854065E0,2.065649671E1
1.397746717E1,-6.352564774E1,2.525143936E1,6.181395721E0,6.863929460E1
1.398738717E1,-7.439185135E1,1.865241211E1,2.387400375E1,8.032451730E1
1.399730817E1,-3.934777588E1,2.148586990E1,2.086570953E1,4.944965022E1
1.400722917E1,-3.287134369E1,3.493794617E1,1.796833466E1,5.122544649E1
1.401714917E1,-3.166560104E1,2.923585373E1,1.182121765E1,4.468989393E1
1.402707017E1,-2.249881348E1,2.139545792E1,5.624403992E0,3.155306875E1
1.403699117E1,-1.581805618E1,1.668490356E1,1.355281677E0,2.303114623E1
1.404691217E1,-1.380249756E1,1.380638947E1,-3.230282593E-1,1.952510374E1
1.405683217E1,-1.421533905E1,1.215397568E1,4.266128540E-2,1.870285564E1
1.406675317E1,-1.422866135E1,1.047656387E1,1.476679230E0,1.773115269E1
1.407667417E1,-1.249930756E1,8.961714020E0,2.232756958E0,1.554124227E1
1.408659417E1,-1.043150757E1,7.791597290E0,2.424208832E0,1.324394680E1
1.409651517E1,-8.952133942E0,6.743925934E0,2.518063660E0,1.148746637E1
1.410643617E1,-7.287894745E0,5.779331818E0,2.245181122E0,9.568433745E0
1.411635717E1,-5.655688934E0,4.834047546E0,1.801653442E0,7.655115161E0
1.412627717E1,-4.270020447E0,3.847299500E0,1.292412415E0,5.891104982E0
1.413619817E1,-3.045267334E0,2.794389038E0,8.036787415E-1,4.210482484E0
1.414611917E1,-1.992805939E0,1.828896790E0,4.246669006E-1,2.737970225E0
1.415603917E1,-1.115480347E0,9.657916260E-1,1.622625732E-1,1.484378325E0
1.416596017E1,-4.261637878E-1,3.062631226E-1,-4.026626587E-2,5.263402383E-1
1.417588117E1,-3.427871704E-2,-1.405577087E-1,-2.142045593E-1,2.584861566E-1
1.418580192E1,1.392105103E-1,-3.159928894E-1,-3.719764709E-1,5.075407050E-1
1.419572192E1,1.685494995E-1,-3.782633972E-1,-4.951702881E-1,6.455120027E-1
1.420564292E1,2.633024597E-1,-4.799020386E-1,-5.891748047E-1,8.042145873E-1
1.421556392E1,4.456233215E-1,-6.279441833E-1,-6.524931335E-1,1.009277629E0
1.422548392E1,6.233038330E-1,-7.888595581E-1,-6.430627441E-1,1.193455807E0
1.423540492E1,5.813909912E-1,-9.132508850E-1,-4.571493530E-1,1.175171560E0
1.424532592E1,5.809419250E-1,-1.055904236E0,-3.763174438E-1,1.262553798E0
1.425524692E1,6.188131714E-1,-1.171763306E0,-2.859054565E-1,1.355618278E0
1.426516692E1,7.152127075E-1,-1.264869690E0,-1.453477478E-1,1.460325483E0
1.427508792E1,8.505313110E-1,-1.339863739E0,-1.095721436E-1,1.590799926E0
1.428500892E1,9.253756714E-1,-1.392853546E0,-8.846603394E-2,1.674570803E0
1.429492992E1,9.792636108E-1,-1.444496155E0,-1.806742859E-1,1.754471304E0
1.430484992E1,9.563612366E-1,-1.410067749E0,-2.308200073E-1,1.719359110E0
1.431477092E1,9.238787842E-1,-1.358574829E0,-2.252815247E-1,1.658321241E0
1.432469192E1,9.036708069E-1,-1.362167358E0,-2.335144043E-1,1.651257041E0
1.433461192E1,8.946894836E-1,-1.367107086E0,-2.345622253E-1,1.650597012E0
1.434453292E1,8.708889771E-1,-1.341809692E0,-2.029779053E-1,1.612482834E0
1.435445392E1,8.488847351E-1,-1.313817902E0,-2.245330811E-1,1.580233488E0
1.436437492E1,8.116122437E-1,-1.276695099E0,-2.812651062E-1,1.538757573E0
1.437429492E1,6.171665955E-1,-1.173409882E0,-3.110531616E-1,1.361814755E0
1.438421592E1,1.317260742E-2,-9.868977356E-1,-3.472778320E-1,1.046299456E0
1.439413692E1,-3.914360046E-1,-6.601272583E-1,-2.968327332E-1,8.228607503E-1
1.440405692E1,-4.120930481E-1,-3.432362366E-1,-3.121009827E-1,6.205149618E-1
1.441397792E1,-4.924758911E-1,-2.647993469E-1,-3.614982605E-1,6.658319531E-1
1.442389892E1,-1.163231049E0,-4.938230896E-1,-4.637356567E-1,1.346112356E0
1.443381992E1,-4.052073669E0,-1.355431366E0,-1.850152588E-1,4.276765817E0
1.444373992E1,-9.894873505E0,-2.372416534E0,4.728666687E-1,1.018628906E1
1.445366092E1,-3.264875656E1,-2.872077484E0,1.626218262E0,3.281515991E1
1.446358192E1,-6.188670593E1,6.737938385E0,8.117619324E-1,6.225771552E1
1.447350192E1,-4.937736923E1,3.877297119E1,-4.738695831E0,6.295969445E1
1.448342292E1,-3.308659607E1,4.182811798E1,2.322420502E0,5.338265571E1
1.449334392E1,-3.597334305E1,2.564033066E1,1.233644623E1,4.586606449E1
1.450326492E1,-2.765993088E1,2.183898560E1,1.160791122E1,3.710467182E1
1.451318492E1,-1.865211273E1,1.973032059E1,6.584357758E0,2.793815719E1
1.452310592E1,-1.493040207E1,1.668430481E1,2.883603516E0,2.257427966E1
1.453302692E1,-1.535596710E1,1.563124466E1,4.264631653E-1,2.191628176E1
1.454294692E1,-1.748873199E1,1.596295486E1,-1.530716858E0,2.372793225E1
1.455286792E1,-1.752046600E1,1.506182877E1,-2.673889618E0,2.325887144E1
1.456278892E1,-1.568498291E1,1.231758545E1,-1.905088348E0,2.003424473E1
1.457270992E1,-1.374411896E1,9.819280701E0,-2.460882568E-1,1.689318321E1
1.458262992E1,-1.149070496E1,8.063282318E0,7.214996338E-1,1.405607996E1
1.459255092E1,-9.442813568E0,6.538253632E0,1.049018555E0,1.153325316E1
1.460247192E1,-7.726183319E0,5.175786896E0,1.159638519E0,9.371629536E0
1.461239192E1,-6.125711517E0,3.935765533E0,1.153201904E0,7.371869950E0
1.462231292E1,-4.660708008E0,2.816842346E0,1.035097504E0,5.543304680E0
1.463223392E1,-3.364403687E0,1.894310760E0,7.999365234E-1,3.943034855E0
1.464215492E1,-2.209106140E0,1.130449219E0,5.670208740E-1,2.545501531E0
1.465207492E1,-1.235231323E0,5.230123901E-1,3.667373657E-1,1.390623845E0
1.466199592E1,-4.707710266E-1,8.786727905E-2,2.136058044E-1,5.243791166E-1
1.467191692E1,-3.891906738E-2,-1.547781372E-1,1.434017944E-1,2.145577783E-1
1.468183692E1,1.098715210E-1,-2.161505127E-1,1.356179810E-1,2.778219430E-1
1.469175792E1,1.764830017E-1,-3.134481812E-1,1.556762695E-1,3.919580501E-1
1.470167892E1,2.881507874E-1,-4.809498596E-1,2.034269714E-1,5.964278468E-1
1.471159992E1,4.099974060E-1,-6.203100586E-1,2.239343262E-1,7.765494345E-1
1.472151992E1,4.412823486E-1,-7.496411133E-1,2.427951050E-1,9.031286580E-1
1.473144092E1,5.164260864E-1,-8.274792480E-1,2.667453003E-1,1.011222460E0
1.474136192E1,5.617817688E-1,-8.506809998E-1,2.697390747E-1,1.054521734E0
1.475128292E1,6.146218872E-1,-9.056167603E-1,1.830693054E-1,1.109691917E0
1.476120292E1,6.945556641E-1,-9.731263733E-1,5.733078003E-2,1.196941656E0
1.477112392E1,8.240364075E-1,-1.051263885E0,1.062789917E-2,1.335778691E0
1.478104492E1,8.864566040E-1,-1.108444977E0,3.158432007E-2,1.419666562E0
1.479096492E1,9.048683167E-1,-1.100212097E0,4.715194702E-2,1.425298788E0
1.480088592E1,9.382489014E-1,-1.112187195E0,8.592132568E-2,1.457619234E0
1.481080692E1,9.858499146E-1,-1.109343109E0,1.103205872E-1,1.488191123E0
1.482072792E1,1.000070343E0,-1.110839996E0,1.743873596E-1,1.504831266E0
1.483064792E1,9.961784363E-1,-1.103654938E0,2.498304749E-1,1.507594430E0
1.484056892E1,9.021739197E-1,-1.058898010E0,2.770738220E-1,1.418433178E0
1.485048992E1,7.843688965E-1,-9.912387085E-1,2.258802795E-1,1.284060218E0
1.486040992E1,5.150788879E-1,-8.836125183E-1,1.763333130E-1,1.037868383E0
1.487033092E1,-1.504371643E-1,-7.102729797E-1,2.305206299E-2,7.263955147E-1
1.488025192E1,-3.812571716E-1,-4.535568237E-1,-9.250762939E-2,5.996903241E-1
1.489017292E1,-3.007246399E-1,-1.975891113E-1,-9.235794067E-2,3.714926044E-1
1.490009292E1,-3.490740967E-1,-8.622070312E-2,5.164260864E-2,3.632543099E-1
1.491001392E1,-6.162684631E-1,-8.008346558E-2,3.534150696E-1,7.149142547E-1
1.491993492E1,-1.576521606E0,2.796185303E-1,6.583309937E-1,1.731186470E0
1.492985492E1,-6.174360352E0,2.600691833E0,-2.671943665E-1,6.705051573E0
1.493977592E1,-3.056269455E1,8.417595520E0,1.974394226E-1,3.170131219E1
1.494969692E1,-6.826434357E1,9.941576385E0,1.020472916E1,6.973515642E1
1.495961792E1,-4.815800491E1,1.158934982E1,1.342767700E1,5.132064863E1
1.496953792E1,-2.971231293E1,2.621977570E1,1.450962708E1,4.219985136E1
1.497945892E1,-3.510844162E1,3.005465103E1,1.475661346E1,4.851435213E1
1.498937992E1,-3.212798950E1,2.361010254E1,1.065424438E1,4.126932971E1
1.499929992E1,-2.191966782E1,1.999856277E1,4.630470886E0,3.003091092E1
1.500922092E1,-1.813748291E1,1.751732254E1,8.102650452E-1,2.522858309E1
1.501914192E1,-1.895867523E1,1.645498169E1,-9.624984741E-1,2.512218526E1
1.502906292E1,-2.015962784E1,1.575249252E1,-1.270108795E0,2.561571376E1
1.503898292E1,-1.913006882E1,1.422342224E1,-6.994953918E-1,2.384857579E1
1.504890392E1,-1.641232040E1,1.205128922E1,2.993774414E-1,2.036387634E1
1.505882492E1,-1.402433624E1,1.015937347E1,1.119971008E0,1.735365124E1
1.506874492E1,-1.179307617E1,8.452173615E0,1.473236389E0,1.458376871E1
1.507866592E1,-9.664352875E0,6.795867920E0,1.541943512E0,1.191474410E1
1.508858692E1,-8.011939087E0,5.234165497E0,1.551373901E0,9.695071808E0
1.509850792E1,-6.612948303E0,3.890709229E0,1.484762421E0,7.814935893E0
1.510842792E1,-5.299130402E0,2.763403473E0,1.388063507E0,6.135462661E0
1.511834892E1,-4.045337677E0,1.823058929E0,1.222058716E0,4.602361164E0
1.512826992E1,-2.882106628E0,1.062191162E0,9.731263733E-1,3.222074428E0
1.513818992E1,-1.847757568E0,4.638853455E-1,6.730004883E-1,2.020476999E0
1.514811092E1,-9.196875000E-1,5.403762817E-2,3.514691162E-1,9.860404163E-1
1.515803192E1,-2.631527710E-1,-1.525328064E-1,1.701960754E-1,3.485431709E-1
1.516795292E1,3.682342529E-2,-2.267784119E-1,1.377136230E-1,2.678608869E-1
1.517787246E1,1.161584473E-1,-2.573149109E-1,1.526824951E-1,3.209605779E-1
1.518779346E1,1.592687988E-1,-3.031196594E-1,1.868115234E-1,3.900597691E-1
1.519771446E1,2.294728088E-1,-3.372486877E-1,2.016307068E-1,4.550268006E-1
1.520763546E1,2.778222656E-1,-3.634442139E-1,2.192939758E-1,5.073132718E-1
1.521755546E1,2.924917603E-1,-4.406835938E-1,2.094145203E-1,5.688654506E-1
1.522747646E1,3.311114502E-1,-5.197192383E-1,1.805245972E-1,6.421308350E-1
1.523739746E1,4.352947998E-1,-5.501060486E-1,1.145118713E-1,7.107821017E-1
1.524731746E1,4.698728943E-1,-5.936654663E-1,-1.975891113E-2,7.573702115E-1
1.525723846E1,5.760021973E-1,-6.962022400E-1,-1.077758789E-1,9.099954562E-1
1.526715946E1,7.403604126E-1,-8.253836060E-1,-1.414558411E-1,1.117766251E0
1.527708046E1,8.120613098E-1,-8.934919739E-1,-1.823208618E-1,1.221070176E0
1.528700046E1,9.258247375E-1,-9.623487854E-1,-1.718426514E-1,1.346401324E0
1.529692146E1,1.071920929E0,-1.071920929E0,-2.411485291E-1,1.534985853E0
1.530684246E1,1.182241516E0,-1.154848480E0,-2.222877502E-1,1.667567647E0
1.531676246E1,1.216819611E0,-1.200802917E0,-2.897973633E-1,1.733943518E0
1.532668346E1,1.247505798E0,-1.207538910E0,-3.704795837E-1,1.775296048E0
1.533660446E1,1.194515991E0,-1.185834045E0,-4.064048767E-1,1.731541441E0
1.534652546E1,1.121467896E0,-1.147663422E0,-3.776646423E-1,1.648469639E0
1.535644546E1,1.051413574E0,-1.033301239E0,-3.561094666E-1,1.516573739E0
1.536636646E1,9.207353210E-1,-9.235794067E-1,-3.406915283E-1,1.347895830E0
1.537628746E1,5.306465149E-1,-7.098239136E-1,-3.149450684E-1,9.405456438E-1
1.538620846E1,-1.901046753E-1,-4.134402466E-1,-2.715353394E-1,5.299094881E-1
1.539612846E1,-3.005749512E-1,-1.272354126E-1,-2.559677124E-1,4.147934682E-1
1.540604946E1,-3.836521912E-1,-8.861572266E-2,-2.227368164E-1,4.523863829E-1
1.541597046E1,-5.324427795E-1,-3.218307495E-2,-2.055226135E-1,5.716385296E-1
1.542589046E1,-6.971003723E-1,3.847000122E-2,-2.692900085E-1,7.482953820E-1
1.543581146E1,-3.692820740E0,-2.734812927E-1,-5.020559692E-1,3.736813780E0
1.544573246E1,-4.490781372E1,2.856509857E0,-1.599274292E0,4.502698147E1
1.545565346E1,-8.009529099E1,3.506907349E1,-6.901847534E0,8.770821542E1
1.546557346E1,-5.196443939E1,5.101197006E1,3.311114502E0,7.289367277E1
1.547549446E1,-3.998410263E1,3.484962982E1,1.666843781E1,5.559731991E1
1.548541546E1,-3.611075729E1,2.597458557E1,1.758707748E1,4.783274174E1
1.549533546E1,-1.996188904E1,2.066557571E1,1.073866882E1,3.067347456E1
1.550525646E1,-1.228106140E1,1.544518158E1,6.111191711E0,2.065731752E1
1.551517746E1,-1.154863449E1,1.235515732E1,4.252057800E0,1.743848808E1
1.552509846E1,-1.356194778E1,1.110765152E1,3.871549072E0,1.795258316E1
1.553501846E1,-1.438179291E1,1.007539810E1,3.826193390E0,1.797190502E1
1.554493946E1,-1.191956314E1,8.329877930E0,3.128494263E0,1.487448581E1
1.555486046E1,-9.459728394E0,6.749614105E0,2.695594482E0,1.192937473E1
1.556478046E1,-7.116052094E0,5.388793945E0,2.071991272E0,9.163538913E0
1.557470146E1,-5.288652191E0,4.206552429E0,1.426982574E0,6.906605867E0
1.558462246E1,-3.898193665E0,3.171754303E0,8.732839966E-1,5.100839553E0
1.559454346E1,-2.542911987E0,2.279759216E0,3.350033569E-1,3.431607598E0
1.560446346E1,-1.373094635E0,1.521436157E0,-1.029858398E-1,2.052014362E0
1.561438446E1,-6.357279968E-1,9.551637268E-1,-3.972738647E-1,1.214213472E0
1.562430546E1,-1.228944397E-1,4.388873291E-1,-5.530998230E-1,7.166899924E-1
1.563422546E1,2.053729248E-1,8.232879639E-2,-7.107220459E-1,7.443667748E-1
1.564414646E1,4.911286926E-1,-1.228944397E-1,-9.355545044E-1,1.063754044E0
1.565406746E1,5.474116516E-1,-2.441423035E-1,-1.079854431E0,1.235050838E0
1.566398846E1,4.593946838E-1,-3.014730835E-1,-1.064137115E0,1.197629866E0
1.567390846E1,4.809498596E-1,-3.653901672E-1,-9.560618591E-1,1.130874449E0
1.568382946E1,5.209167480E-1,-4.278103638E-1,-8.812174988E-1,1.109468452E0
1.569375046E1,5.117857361E-1,-4.969665527E-1,-7.713459778E-1,1.050654563E0
1.570367146E1,4.818479919E-1,-5.406756592E-1,-6.421646118E-1,9.679271896E-1
1.571359146E1,5.116360474E-1,-6.089337158E-1,-5.730084229E-1,9.802603572E-1
1.572351246E1,5.355862427E-1,-6.595285034E-1,-5.463638306E-1,1.010120738E0
1.573343346E1,5.550457764E-1,-7.214996338E-1,-4.846920776E-1,1.031292367E0
1.574335346E1,5.851332092E-1,-7.951464844E-1,-4.315525818E-1,1.077439759E0
1.575327446E1,6.771917725E-1,-8.860075378E-1,-3.640429688E-1,1.173083687E0
1.576319546E1,7.711962891E-1,-9.638456726E-1,-4.050576782E-1,1.299158928E0
1.577311646E1,8.042774963E-1,-9.710307312E-1,-4.572990417E-1,1.341225330E0
1.578303646E1,9.030720520E-1,-1.038540344E0,-5.409750366E-1,1.478769478E0
1.579295746E1,9.292675781E-1,-1.057850189E0,-6.520440674E-1,1.551691567E0
1.580287846E1,8.976832581E-1,-1.038390656E0,-6.283932495E-1,1.509625272E0
1.581279946E1,9.008267212E-1,-1.040935364E0,-5.900729370E-1,1.497738724E0
1.582271946E1,9.657916260E-1,-1.037043457E0,-5.884263611E-1,1.534424380E0
1.583264046E1,9.681866455E-1,-9.873468018E-1,-5.596861267E-1,1.491806840E0
1.584256146E1,8.463400269E-1,-8.484356689E-1,-6.024971008E-1,1.341319232E0
1.585248146E1,7.080276489E-2,-4.770579529E-1,-7.604187012E-1,9.004631714E-1
1.586240246E1,-4.099974060E-1,-2.320175171E-2,-8.434959412E-1,9.381479611E-1
1.587232346E1,-4.752616882E-1,5.837860107E-2,-8.205935669E-1,9.500818572E-1
1.588224446E1,-6.274951172E-1,1.588197327E-1,-8.816665649E-1,1.093759462E0
1.589216446E1,-8.750802612E-1,2.763253784E-1,-1.131497040E0,1.456848218E0
1.590208546E1,-1.109642487E0,3.556604004E-1,-1.460063782E0,1.868043633E0
1.591200646E1,-1.946851501E0,3.842509460E-1,-1.988015900E0,2.808929827E0
1.592192646E1,-1.985171814E1,5.126838684E0,-3.025358734E0,2.072505690E1
1.593184746E1,-7.567872528E1,4.013124664E1,-1.121213425E1,8.639154109E1
1.594176846E1,-7.269228561E1,5.064508301E1,-6.644981689E0,8.884395648E1
1.595168946E1,-4.195460495E1,2.804058929E1,1.977088623E0,5.050121191E1
1.596160946E1,-2.766531967E1,1.833881424E1,4.349954224E0,3.347542564E1
1.597153046E1,-2.170755890E1,1.549996765E1,4.966222687E0,2.713172457E1
1.598145146E1,-1.801009781E1,1.297606613E1,3.824846191E0,2.252490541E1
1.599137146E1,-1.665795959E1,1.192644882E1,2.504441986E0,2.063976814E1
1.600129246E1,-1.562480804E1,1.154354507E1,1.116677856E0,1.945854642E1
1.601121346E1,-1.487965759E1,1.102592148E1,1.204994202E-1,1.851998042E1
1.602113446E1,-1.426174255E1,1.045231430E1,7.589218140E-2,1.768202292E1
1.603105446E1,-1.276949570E1,9.334738312E0,8.015830994E-1,1.583792585E1
1.604097546E1,-1.084794159E1,7.775580597E0,1.520088959E0,1.343309945E1
1.605089646E1,-9.047934723E0,6.193370819E0,1.858235779E0,1.112097141E1
1.606081746E1,-7.498506775E0,4.881947937E0,1.675166473E0,9.103142437E0
1.607073746E1,-6.231242065E0,3.876937866E0,1.227447510E0,7.440809921E0
1.608065846E1,-5.148543549E0,3.087030487E0,7.765850830E-1,6.053126654E0
1.609057946E1,-4.088298340E0,2.418221283E0,4.028123474E-1,4.766994365E0
1.610049946E1,-3.087030487E0,1.815125427E0,9.834548950E-2,3.582472523E0
1.611042046E1,-2.129920807E0,1.241368561E0,-1.504371643E-1,2.469856248E0
1.612034146E1,-1.279389496E0,7.192543030E-1,-3.435356140E-1,1.507375518E0
1.613026246E1,-6.152206421E-1,3.026705933E-1,-4.894821167E-1,8.424361513E-1
1.614018246E1,-1.329235840E-1,-2.844085693E-2,-5.936654663E-1,6.090289381E-1
1.615010346E1,1.911524963E-1,-2.369572449E-1,-6.846762085E-1,7.493127006E-1
1.616002446E1,3.137475586E-1,-3.061134338E-1,-7.393125916E-1,8.594917527E-1
1.616994446E1,4.331991577E-1,-3.591032410E-1,-7.930508423E-1,9.723920436E-1
1.617986579E1,6.550378418E-1,-4.222718811E-1,-8.523275757E-1,1.154924418E0
1.618978679E1,6.935078430E-1,-4.378395081E-1,-7.955955505E-1,1.142641170E0
1.619970779E1,5.435197449E-1,-4.216731262E-1,-6.177653503E-1,9.245842128E-1
1.620962779E1,4.492158508E-1,-4.141886902E-1,-4.176315308E-1,7.401102939E-1
1.621954879E1,4.183799744E-1,-4.032614136E-1,-2.938389587E-1,6.511550540E-1
1.622946979E1,3.948788452E-1,-3.969744873E-1,-1.932481384E-1,5.923368037E-1
1.623938979E1,3.305126953E-1,-4.107458496E-1,-6.885681152E-2,5.316879303E-1
1.624931079E1,3.541635132E-1,-4.644841003E-1,-4.086502075E-2,5.855315734E-1
1.625923179E1,3.920347595E-1,-5.143304443E-1,-3.367996216E-2,6.475811907E-1
