"Time (s)","Acceleration x (m/s^2)","Acceleration y (m/s^2)","Acceleration z (m/s^2)","Absolute acceleration (m/s^2)"


4.755213792E0,3.960314484E0,-1.007554779E1,1.001267853E0,1.087213371E1
4.765134792E0,3.885170746E0,-1.011267059E1,7.090754700E-1,1.085649328E1
4.775055792E0,3.772455139E0,-1.006970993E1,4.698728943E-1,1.076342215E1
4.784976792E0,3.760030975E0,-9.898765411E0,3.550616455E-1,1.059478449E1
4.794897792E0,4.005370789E0,-9.473200378E0,3.390449524E-1,1.029074691E1
4.804819792E0,4.278852081E0,-8.920699310E0,4.480183411E-1,9.903947281E0
4.814740792E0,4.580175476E0,-8.495733032E0,6.384223938E-1,9.672800541E0
4.824661792E0,4.892575836E0,-8.231831818E0,7.946974182E-1,9.608948817E0
4.834582792E0,5.209317169E0,-8.053702240E0,9.113049316E-1,9.634810938E0
4.844503792E0,5.507497101E0,-7.887847137E0,9.735754395E-1,9.669462545E0
4.854424792E0,5.829028473E0,-7.702532501E0,1.013991394E0,9.712608219E0
4.864345792E0,6.137836304E0,-7.482639771E0,1.051563263E0,9.734922584E0
4.874266792E0,6.440806274E0,-7.238347778E0,1.122515717E0,9.753855933E0
4.884187792E0,6.772965546E0,-7.014263763E0,1.212029572E0,9.825577546E0
4.894108792E0,7.068900146E0,-6.776857452E0,1.322649536E0,9.881525591E0
4.904029792E0,7.258705444E0,-6.574927368E0,1.492845612E0,9.906919937E0
4.913950792E0,7.303761749E0,-6.480773163E0,1.663341064E0,9.905153203E0
4.923871792E0,7.338938599E0,-6.524931335E0,1.741927643E0,9.973417699E0
4.933792792E0,7.428602142E0,-6.657256165E0,1.729952545E0,1.012402713E1
4.943713792E0,7.451504517E0,-6.786587219E0,1.775158539E0,1.023395688E1
4.953634792E0,7.352410583E0,-6.882088623E0,1.889520721E0,1.024652984E1
4.963555792E0,7.203021240E0,-6.980883179E0,2.022593994E0,1.023265026E1
4.973476792E0,7.062014465E0,-7.103029175E0,2.148931274E0,1.024416797E1
4.983397792E0,6.945556641E0,-7.255112915E0,2.266885986E0,1.029641649E1
4.993318792E0,6.825356598E0,-7.397317200E0,2.363135834E0,1.033877195E1
5.003240792E0,6.684050446E0,-7.518415375E0,2.403851166E0,1.034319102E1
5.013161792E0,6.467301178E0,-7.612419891E0,2.371668091E0,1.026643710E1
5.023082792E0,6.209686890E0,-7.648644562E0,2.302062836E0,1.011738445E1
5.033003792E0,6.004613342E0,-7.626191254E0,2.178120575E0,9.947782852E0
5.042924792E0,5.927673340E0,-7.528893585E0,2.052831116E0,9.799778846E0
5.052845792E0,5.974226532E0,-7.375312958E0,2.003284149E0,9.700503660E0
5.062766792E0,6.130202179E0,-7.182214508E0,2.028880920E0,9.658154160E0
5.072687792E0,6.307433624E0,-6.959028625E0,2.162103882E0,9.637763824E0
5.082608792E0,6.431076508E0,-6.766229553E0,2.371219025E0,9.631369948E0
5.092529792E0,6.532715149E0,-6.627168732E0,2.598895569E0,9.661779898E0
5.102450792E0,6.602170715E0,-6.483766937E0,2.764900360E0,9.657772303E0
5.112371792E0,6.586603088E0,-6.413862305E0,2.860850830E0,9.628366288E0
5.122292792E0,6.524332581E0,-6.383325806E0,2.862497406E0,9.565963379E0
5.132213792E0,6.407126312E0,-6.449488220E0,2.780318298E0,9.506699518E0
5.142134792E0,6.327940979E0,-6.467600555E0,2.686164093E0,9.438653056E0
5.152055792E0,6.294111328E0,-6.418053589E0,2.615061951E0,9.361933469E0
5.161976792E0,6.250252533E0,-6.509214020E0,2.616109772E0,9.395719995E0
5.171897792E0,6.300248566E0,-6.618037720E0,2.689457245E0,9.524953308E0
5.181818792E0,6.377487946E0,-6.708449707E0,2.786305847E0,9.666392825E0
5.191739792E0,6.398594055E0,-6.814579010E0,2.884950714E0,9.782813174E0
5.201661792E0,6.310128021E0,-6.952741699E0,2.917882233E0,9.832210815E0
5.211582792E0,6.076912994E0,-7.091353455E0,2.845582581E0,9.762863595E0
5.221503792E0,5.788612518E0,-7.229965210E0,2.634371796E0,9.629140490E0
5.231424792E0,5.523813171E0,-7.389982452E0,2.339784393E0,9.518347735E0
5.241345792E0,5.341492310E0,-7.557783508E0,1.992805939E0,9.466937581E0
5.251266792E0,5.277874603E0,-7.669750671E0,1.675615540E0,9.459847944E0
5.261187792E0,5.329966278E0,-7.715705109E0,1.502874756E0,9.497330066E0
5.271108792E0,5.415288849E0,-7.689808960E0,1.444047089E0,9.515449919E0
5.281029792E0,5.514233093E0,-7.579188995E0,1.480421448E0,9.489073722E0
5.290950792E0,5.625900879E0,-7.404502258E0,1.624122620E0,9.440084146E0
5.300871792E0,5.763165436E0,-7.194488983E0,1.820514221E0,9.396223688E0
5.310792792E0,5.898034973E0,-7.008575592E0,2.078876953E0,9.393012177E0
5.320713792E0,6.054459686E0,-6.875951385E0,2.333647156E0,9.454157741E0
5.330634792E0,6.176605682E0,-6.779102783E0,2.553539886E0,9.519834991E0
5.340555792E0,6.273603973E0,-6.734495544E0,2.730471954E0,9.600365313E0
5.350476792E0,6.374194794E0,-6.698869629E0,2.829865265E0,9.670230142E0
5.360397792E0,6.481371918E0,-6.691684570E0,2.862946472E0,9.745936939E0
5.370318792E0,6.646029510E0,-6.694528656E0,2.865940247E0,9.859007844E0
5.380239792E0,6.874304810E0,-6.677015076E0,2.880310364E0,1.000673697E1
5.390160792E0,7.106322327E0,-6.667584686E0,2.834206238E0,1.014836083E1
5.400081792E0,7.240144043E0,-6.664141846E0,2.694247284E0,1.020242328E1
5.410003792E0,7.219786377E0,-6.723268890E0,2.549647980E0,1.018962044E1
5.419924792E0,7.095993805E0,-6.752907257E0,2.495011597E0,1.010841072E1
5.429845792E0,6.905140686E0,-6.785689087E0,2.440824280E0,9.984195884E0
5.439766792E0,6.793622589E0,-6.865323486E0,2.364932098E0,9.943785913E0
5.449687792E0,6.728657684E0,-6.880891113E0,2.282303925E0,9.890925536E0
5.459608792E0,6.680158539E0,-6.883884888E0,2.234403534E0,9.849109016E0
5.469529792E0,6.647975464E0,-6.948700104E0,2.212698669E0,9.867930193E0
5.479450792E0,6.774462433E0,-6.886878662E0,2.320474548E0,9.935141725E0
5.489371792E0,6.784192200E0,-6.824009399E0,2.408940582E0,9.919443675E0
5.499292792E0,6.788084106E0,-6.795568542E0,2.420316925E0,9.905340563E0
5.509213792E0,6.855893097E0,-6.606511688E0,2.433489532E0,9.827061522E0
5.519134792E0,6.641389160E0,-6.507717133E0,2.356848907E0,9.592349505E0
5.529055792E0,6.691983948E0,-6.375242615E0,2.259251862E0,9.514756252E0
5.538976792E0,6.851851501E0,-6.226152649E0,2.173031158E0,9.509727137E0
5.548897792E0,6.747967529E0,-6.276597748E0,1.993554382E0,9.428945017E0
5.558818792E0,6.642886047E0,-6.388415222E0,1.769320679E0,9.384576695E0
5.568739792E0,6.947203217E0,-6.209686890E0,1.680106201E0,9.468188879E0
5.578660792E0,7.149282990E0,-6.050867157E0,1.599873047E0,9.501833212E0
5.588581792E0,7.063211975E0,-6.096522217E0,1.484313354E0,9.447736908E0
5.598502792E0,6.803651733E0,-6.295608215E0,1.523831177E0,9.393956630E0
5.608423792E0,6.966213684E0,-6.288722534E0,1.746118927E0,9.545946549E0
5.618345792E0,7.207362213E0,-6.081104279E0,1.941013641E0,9.627742896E0
5.628266792E0,6.859635315E0,-6.225404205E0,1.886377258E0,9.453500586E0
5.638187792E0,6.745722198E0,-6.324049072E0,1.630559235E0,9.389200608E0
5.648108792E0,6.864125977E0,-6.212680664E0,1.380130005E0,9.360469288E0
5.658029792E0,6.962321777E0,-6.169121246E0,1.333277435E0,9.397319309E0
5.667950792E0,6.988966370E0,-6.159241791E0,1.437311096E0,9.425909693E0
5.677871792E0,6.995852051E0,-6.121669922E0,1.548380127E0,9.424132298E0
5.687792792E0,6.894961853E0,-6.117179260E0,1.673070831E0,9.368006568E0
5.697713792E0,6.735243988E0,-6.126759338E0,1.895508270E0,9.300195867E0
5.707634792E0,6.597380676E0,-6.165977783E0,2.029928741E0,9.255556413E0
5.717555792E0,6.386768646E0,-6.234235840E0,1.902244263E0,9.125516067E0
5.727476792E0,6.145769806E0,-6.335874481E0,1.816023560E0,9.011755296E0
5.737397792E0,5.978118439E0,-6.328689423E0,1.926493835E0,8.916366321E0
5.747318792E0,5.851930847E0,-6.258934479E0,2.028731232E0,8.805402084E0
5.757239667E0,5.598956909E0,-6.450985107E0,2.185305634E0,8.816977262E0
5.767160667E0,5.090164948E0,-6.983727264E0,2.585872650E0,9.020474658E0
5.777081667E0,4.587510223E0,-7.466623077E0,3.092269592E0,9.292891986E0
5.787002667E0,4.189038849E0,-7.688611450E0,3.612737274E0,9.471782468E0
5.796923667E0,3.970643005E0,-7.673043823E0,3.951632538E0,9.500368788E0
5.806844667E0,4.002526703E0,-7.519014130E0,4.135150909E0,9.468646500E0
5.816765667E0,4.245621185E0,-7.317084045E0,4.124223633E0,9.411388779E0
5.826687667E0,4.595443726E0,-7.121590576E0,4.063599701E0,9.399361569E0
5.836608667E0,4.903652802E0,-6.917265472E0,4.127965851E0,9.430507647E0
5.846529667E0,5.167554016E0,-6.772815857E0,4.161945190E0,9.481373155E0
5.856450667E0,5.393434296E0,-6.665339355E0,4.117936707E0,9.511744579E0
5.866371667E0,5.509143677E0,-6.582561493E0,4.009562073E0,9.474036514E0
5.876292667E0,5.555696869E0,-6.506519623E0,3.915707245E0,9.409215086E0
5.886213667E0,5.559439087E0,-6.479875031E0,3.933220825E0,9.400338793E0
5.896134667E0,5.555098114E0,-6.532715149E0,4.037254486E0,9.478127772E0
5.906055667E0,5.588478699E0,-6.593788147E0,4.222868500E0,9.619862507E0
5.915976667E0,5.712870026E0,-6.625073090E0,4.456831970E0,9.817934028E0
5.925897667E0,5.856720886E0,-6.589746552E0,4.589755554E0,9.939406179E0
5.935818667E0,6.227200470E0,-6.582561493E0,4.534969482E0,1.013282240E1
5.945739667E0,6.577621765E0,-6.506669312E0,4.397854614E0,1.024416804E1
5.955660667E0,6.894812164E0,-6.382577362E0,4.288731537E0,1.032806597E1
5.965581667E0,7.363637238E0,-6.459517365E0,4.127367096E0,1.062937802E1
5.975502667E0,7.844138031E0,-6.880591736E0,3.721710663E0,1.107809435E1
5.985423667E0,8.247848511E0,-7.635172577E0,3.255430298E0,1.170131154E1
5.995344667E0,8.529862061E0,-8.478518829E0,2.874921570E0,1.236563797E1
6.005265667E0,8.627159729E0,-9.173972626E0,2.835104370E0,1.290842653E1
6.015186667E0,8.463999023E0,-9.634265442E0,3.294049988E0,1.324043486E1
6.025107667E0,7.956853638E0,-9.595196686E0,3.921694794E0,1.306747907E1
6.035029667E0,6.952292633E0,-8.971144409E0,3.982767792E0,1.202822697E1
6.044950667E0,5.795797577E0,-8.078700256E0,2.920127563E0,1.036261610E1
6.054871667E0,5.035378876E0,-7.090305634E0,1.103355560E0,8.766120458E0
6.064792667E0,4.701573029E0,-6.250701599E0,-4.860392761E-1,7.836599620E0
6.074713667E0,4.595443726E0,-5.611979828E0,-1.202599182E0,7.352459821E0
6.084634667E0,4.534670105E0,-5.230273590E0,-1.086889801E0,7.007162352E0
6.094555667E0,4.465064850E0,-5.398823090E0,-4.917274475E-1,7.023239334E0
6.104476667E0,4.706063690E0,-6.044280853E0,5.134323120E-2,7.660483184E0
6.114397667E0,5.172793121E0,-7.041806488E0,3.951782227E-1,8.746484615E0
6.124318667E0,5.613626404E0,-8.104596405E0,3.233276367E-1,9.864168746E0
6.134239667E0,5.868246918E0,-8.952133942E0,-1.429527283E-1,1.070502029E1
6.144160667E0,5.975873108E0,-9.439071350E0,-5.306465149E-1,1.118430655E1
6.154081667E0,6.089337158E0,-9.535919952E0,-6.092330933E-1,1.133070877E1
6.164002667E0,6.620881805E0,-9.152417450E0,-2.640509033E-1,1.129922758E1
6.173923667E0,7.038064270E0,-8.693322144E0,1.760339355E-1,1.118656277E1
6.183844667E0,6.903344421E0,-8.479117584E0,3.567082214E-1,1.093978245E1
6.193765667E0,6.355633392E0,-8.535849609E0,3.382965088E-1,1.064749965E1
6.203686667E0,5.686075745E0,-8.690777435E0,1.637594604E-1,1.038690940E1
6.213607667E0,5.166356506E0,-8.721763000E0,-6.227050781E-2,1.013727118E1
6.223528667E0,4.754562836E0,-8.669371948E0,-2.926414490E-1,9.891891465E0
6.233449667E0,4.233047333E0,-8.612190857E0,-4.839436340E-1,9.608471393E0
6.243370667E0,3.822002106E0,-8.563691711E0,-5.936654663E-1,9.396645918E0
6.253291667E0,3.575315094E0,-8.511001282E0,-6.818321228E-1,9.256614710E0
6.263213667E0,3.445534973E0,-8.446635132E0,-8.143066406E-1,9.158627168E0
6.273134667E0,3.445085907E0,-8.471483459E0,-8.352630615E-1,9.183262671E0
6.283055667E0,3.516337738E0,-8.608598328E0,-7.414082336E-1,9.328573440E0
6.292976667E0,3.658242645E0,-8.834179230E0,-5.248086548E-1,9.576057959E0
6.302897667E0,3.825894012E0,-9.070388031E0,-2.418969727E-1,9.847228959E0
6.312818667E0,4.009262695E0,-9.182804260E0,9.011260986E-2,1.002028950E1
6.322739667E0,4.145479431E0,-9.217532043E0,4.709207153E-1,1.011778943E1
6.332660667E0,4.128414917E0,-9.177565155E0,8.414002991E-1,1.009848832E1
6.342581667E0,4.189787292E0,-9.200766907E0,1.127455444E0,1.017249158E1
6.352502667E0,4.267475739E0,-9.223369904E0,1.233435059E0,1.023734651E1
6.362423667E0,4.427792358E0,-9.217382355E0,1.103056183E0,1.028504816E1
6.372344667E0,4.618944855E0,-9.179960175E0,9.231303406E-1,1.031787236E1
6.382265667E0,4.744683380E0,-9.114845581E0,7.518864441E-1,1.030328897E1
6.392186667E0,4.781207428E0,-9.005722504E0,7.035369873E-1,1.022046704E1
6.402107667E0,4.797673187E0,-8.817713470E0,7.637118530E-1,1.006742244E1
6.412028667E0,4.828059998E0,-8.640332336E0,8.622070313E-1,9.935235638E0
6.421949667E0,4.853656769E0,-8.439749451E0,9.020242310E-1,9.777576516E0
6.431870667E0,4.780458984E0,-8.240813141E0,7.774832153E-1,9.558675090E0
6.441791667E0,4.710554352E0,-8.110883331E0,4.632865906E-1,9.390973601E0
6.451712667E0,4.772974548E0,-8.043673096E0,3.143463135E-2,9.353232118E0
6.461633667E0,4.842879181E0,-8.122708740E0,-3.600013733E-1,9.463692568E0
6.471554667E0,4.926106110E0,-8.315657501E0,-6.152206421E-1,9.684791042E0
6.481476667E0,4.960684204E0,-8.594377899E0,-7.589218140E-1,9.952270171E0
6.491397667E0,4.825365601E0,-8.773555298E0,-8.416996765E-1,1.004827767E1
6.501318667E0,4.635260925E0,-8.843759308E0,-8.319699097E-1,1.001947586E1
6.511239667E0,4.574936371E0,-8.898695068E0,-8.137078857E-1,1.003887131E1
6.521160667E0,4.698579254E0,-8.962761841E0,-8.406518555E-1,1.015452817E1
6.531081667E0,4.967120819E0,-8.992400208E0,-7.978408813E-1,1.030398470E1
6.541002667E0,5.190157013E0,-8.945996704E0,-7.450007629E-1,1.036935933E1
6.550923667E0,5.324427795E0,-8.803642731E0,-7.617658997E-1,1.031668280E1
6.560844667E0,5.388344879E0,-8.636141052E0,-6.569837952E-1,1.020043237E1
6.570765667E0,5.413043518E0,-8.305179291E0,-6.480024719E-1,9.934633883E0
6.580686667E0,5.451812897E0,-8.039032745E0,-6.150709534E-1,9.732760329E0
6.590607667E0,5.525459747E0,-7.859705658E0,-5.144801331E-1,9.621349607E0
6.600528667E0,5.400319977E0,-7.841743011E0,-3.106040955E-1,9.526429773E0
6.610449667E0,5.232967987E0,-8.031099243E0,-1.035845947E-1,9.586096118E0
6.620370667E0,5.051245880E0,-8.308023376E0,5.792953491E-2,9.723255278E0
6.630291667E0,4.965623932E0,-8.614136810E0,1.050814819E-1,9.943430803E0
6.640212667E0,5.062472534E0,-8.830586700E0,3.742218018E-3,1.017879677E1
6.650133667E0,4.878954163E0,-8.881480865E0,-2.574645996E-2,1.013338833E1
6.660054667E0,4.727469177E0,-8.984167328E0,-1.841171265E-2,1.015207202E1
6.669975667E0,4.514462128E0,-8.970096588E0,4.101470947E-2,1.004214535E1
6.679896667E0,4.272415466E0,-8.911568298E0,9.610015869E-2,9.883259518E0
6.689817667E0,4.032165070E0,-8.696166229E0,1.437011719E-1,9.586569369E0
6.699738667E0,3.898792419E0,-8.380921783E0,1.697470093E-1,9.244957886E0
6.709659667E0,4.123026123E0,-8.015082550E0,1.911524963E-1,9.015399712E0
6.719581667E0,4.382736053E0,-7.690108337E0,2.377056885E-1,8.854526839E0
6.729502667E0,4.471501465E0,-7.560926971E0,4.309538269E-1,8.794752027E0
6.739423667E0,4.485123138E0,-7.674540710E0,5.310955811E-1,8.904884457E0
6.749344667E0,4.405788116E0,-7.899522858E0,4.269122314E-1,9.055146844E0
6.759265542E0,4.326004028E0,-8.198002167E0,1.305285645E-1,9.270306796E0
6.769186542E0,4.375850372E0,-8.508456573E0,-2.070195007E-1,9.569992519E0
6.779107542E0,4.577181702E0,-8.738977203E0,-4.261637878E-1,9.874306581E0
6.789028542E0,4.872667236E0,-8.881331177E0,-4.396357727E-1,1.013973417E1
6.798949542E0,5.180277557E0,-8.928782501E0,-2.466870117E-1,1.032566158E1
6.808870542E0,5.476062469E0,-8.965905304E0,6.361770630E-2,1.050612989E1
6.818791542E0,5.669909363E0,-9.011410675E0,4.342469788E-1,1.065560721E1
6.828712542E0,5.762416992E0,-9.002579041E0,7.978408813E-1,1.071860201E1
6.838633542E0,5.762866058E0,-8.984616394E0,1.135239258E0,1.073418488E1
6.848554542E0,5.574108582E0,-8.973988495E0,1.363963623E0,1.065192718E1
6.858475542E0,5.252577209E0,-9.051676941E0,1.430874481E0,1.056266181E1
6.868396542E0,4.854405212E0,-9.216484222E0,1.285077667E0,1.049572561E1
6.878317542E0,4.561165009E0,-9.495354309E0,1.017434235E0,1.058305968E1
6.888238542E0,4.277205505E0,-9.797126770E0,8.515791321E-1,1.072396228E1
6.898159542E0,4.264182587E0,-1.010533585E1,9.078620911E-1,1.100569304E1
6.908080542E0,4.395609283E0,-1.056263489E1,1.095571747E0,1.149308114E1
6.918001542E0,4.353846130E0,-1.075109299E1,1.450334015E0,1.168954427E1
6.927922542E0,4.291875000E0,-1.078013260E1,1.856140137E0,1.175060450E1
6.937843542E0,4.082759857E0,-1.081231567E1,2.136058044E0,1.175320562E1
6.947765542E0,3.915707245E0,-1.119042938E1,1.945055237E0,1.201422960E1
6.957686542E0,4.079915771E0,-1.169517975E1,1.247356110E0,1.244904974E1
6.967607542E0,4.532724152E0,-1.218810471E1,6.104306030E-1,1.301799178E1
6.977528542E0,5.045857086E0,-1.272518784E1,4.207749939E-1,1.369555150E1
6.987449542E0,5.539829865E0,-1.187525528E1,3.866459656E-1,1.310957276E1
6.997370542E0,6.270161133E0,-9.899214478E0,6.002517700E-2,1.171806174E1
7.007291542E0,7.147636414E0,-8.241860962E0,-2.008822632E-1,1.091133961E1
7.017212542E0,7.750133514E0,-7.226372681E0,-5.658233643E-2,1.059661423E1
7.027133542E0,8.314160614E0,-6.590045929E0,3.025209045E-1,1.061345801E1
7.037054542E0,9.021439819E0,-6.076613617E0,1.073417816E0,1.092995129E1
7.046975542E0,9.622589722E0,-5.814508667E0,2.082319794E0,1.143410686E1
7.056896542E0,9.889185333E0,-5.907914429E0,2.037413177E0,1.169831150E1
7.066817542E0,9.883946228E0,-6.200256500E0,9.571096802E-1,1.170690534E1
7.076738542E0,9.625433807E0,-6.585555267E0,-2.176473999E-1,1.166472822E1
7.086659542E0,9.288634186E0,-6.939718781E0,-1.057700500E0,1.164290136E1
7.096580542E0,8.964109039E0,-7.378755798E0,-1.423689423E0,1.169735780E1
7.106501542E0,8.582402802E0,-7.822582855E0,-1.478176117E0,1.170621395E1
7.116422542E0,7.851023712E0,-8.144114227E0,-1.125958557E0,1.136806723E1
7.126343542E0,6.930138702E0,-8.404572601E0,-5.941145325E-1,1.090947456E1
7.136264542E0,5.875132599E0,-8.693022766E0,-6.960525513E-2,1.049241025E1
7.146185542E0,4.723876648E0,-9.282197571E0,5.789959717E-1,1.043117628E1
7.156106542E0,4.155658264E0,-9.998009033E0,1.666035461E0,1.095469554E1
7.166027542E0,3.889811096E0,-1.076860657E1,2.650089111E0,1.175229723E1
7.175948542E0,3.274740143E0,-1.134550690E1,3.386557617E0,1.228467428E1
7.185869542E0,2.580034790E0,-1.170281387E1,3.563639374E0,1.250247806E1
7.195790542E0,2.157912598E0,-1.148396896E1,3.242856445E0,1.212659259E1
7.205712542E0,2.475552063E0,-1.042806473E1,2.466570740E0,1.099803906E1
7.215633542E0,3.162323914E0,-9.064250793E0,1.791923676E0,9.765855080E0
7.225554542E0,3.970643005E0,-7.751031647E0,1.242117004E0,8.797008134E0
7.235475542E0,4.687352600E0,-6.662345581E0,1.077010345E0,8.216938257E0
7.245396542E0,5.266049194E0,-5.877976685E0,1.342707825E0,8.005295018E0
7.255317542E0,5.713768158E0,-5.346581726E0,1.672771454E0,8.001952703E0
7.265238542E0,5.974825287E0,-5.059778137E0,1.877096558E0,8.051297007E0
7.275159542E0,6.095624084E0,-4.891677704E0,1.940714264E0,8.053043871E0
7.285080542E0,6.139632568E0,-4.708159332E0,1.835333405E0,7.951748303E0
7.295001542E0,6.143973541E0,-4.556225281E0,1.622625732E0,7.819239986E0
7.304922542E0,6.117628326E0,-4.607568512E0,1.609303436E0,7.825913460E0
7.314843542E0,5.913452911E0,-4.734953613E0,1.921105042E0,7.815328249E0
7.324764542E0,5.269791412E0,-4.816234589E0,2.340832214E0,7.513076108E0
7.334685542E0,4.391867065E0,-4.872367859E0,2.728526001E0,7.104457686E0
7.344606542E0,3.616928558E0,-5.136867828E0,3.010240173E0,6.966428725E0
7.354527542E0,3.070415039E0,-5.360353088E0,3.071313171E0,6.898825867E0
7.364448542E0,2.766247559E0,-5.655688934E0,2.997516632E0,6.973094638E0
7.374369542E0,2.649789734E0,-5.940696259E0,3.013832703E0,7.169131414E0
7.384290542E0,2.704126740E0,-6.149062958E0,3.074606323E0,7.387589642E0
7.394211542E0,2.809357910E0,-6.315965881E0,3.140319672E0,7.592464983E0
7.404132542E0,2.848576355E0,-6.542444916E0,3.165018311E0,7.806107457E0
7.414053542E0,2.878364410E0,-6.709647217E0,3.116519165E0,7.938327227E0
7.423974542E0,3.037782898E0,-6.686146088E0,3.064726868E0,7.957714824E0
7.433895542E0,3.281326447E0,-6.538702698E0,3.142115936E0,7.962074402E0
7.443816542E0,3.522025909E0,-6.403833160E0,3.365750885E0,8.046242892E0
7.453738542E0,3.717519379E0,-6.353986816E0,3.650309143E0,8.216924950E0
7.463659542E0,3.804937592E0,-6.440656586E0,4.047283630E0,8.505299061E0
7.473580542E0,3.865262146E0,-6.671326904E0,4.390669556E0,8.872701577E0
7.483501542E0,3.903732147E0,-7.074887695E0,4.847968597E0,9.423160834E0
7.493422542E0,3.886517944E0,-7.623197479E0,5.497318268E0,1.017048031E1
7.503343542E0,3.879332886E0,-8.230334930E0,5.990392914E0,1.089368826E1
7.513264542E0,3.937711487E0,-8.810229034E0,6.270310822E0,1.150836675E1
7.523185542E0,4.041445770E0,-9.261540527E0,6.430328064E0,1.197741775E1
7.533106542E0,4.151017914E0,-9.559570770E0,6.730304260E0,1.240618146E1
7.543027542E0,4.240232391E0,-9.739047546E0,7.063211975E0,1.275608017E1
7.552948542E0,4.091591492E0,-9.747130737E0,7.513775024E0,1.296936751E1
7.562869542E0,3.810925140E0,-9.508227539E0,7.936795349E0,1.295848223E1
7.572790542E0,3.770808563E0,-9.195378113E0,8.044571228E0,1.278628570E1
7.582711542E0,3.883973236E0,-8.850345612E0,7.702083435E0,1.235863887E1
7.592632542E0,3.997437286E0,-8.443791046E0,7.072792053E0,1.171757225E1
7.602553542E0,4.080514526E0,-8.033643951E0,6.411616974E0,1.105888178E1
7.612474542E0,4.073030090E0,-7.724387054E0,6.168073425E0,1.069115799E1
7.622395542E0,3.923790436E0,-7.610324249E0,6.099815369E0,1.051289276E1
7.632316542E0,3.926035767E0,-7.774682465E0,5.862858124E0,1.049916900E1
7.642237542E0,4.242178345E0,-8.096213837E0,5.235213318E0,1.053338569E1
7.652158542E0,4.626878357E0,-8.449928284E0,4.493056641E0,1.062999762E1
7.662079542E0,4.973856812E0,-8.672964478E0,3.790567474E0,1.069242565E1
7.672000542E0,5.516927490E0,-8.803642731E0,3.012335815E0,1.081733707E1
7.681921542E0,6.107449493E0,-9.096583557E0,2.700234833E0,1.128450441E1
7.691842542E0,6.868317261E0,-9.975256348E0,3.079695740E0,1.249656141E1
7.701763542E0,7.729027405E0,-1.145298340E1,4.794380035E0,1.462514182E1
7.711685542E0,7.878416748E0,-1.296588730E1,7.545658722E0,1.694463483E1
7.721606542E0,6.280489655E0,-1.325418777E1,6.768624573E0,1.615339972E1
7.731527542E0,4.334386597E0,-1.036309982E1,3.362008667E-1,1.123805037E1
7.741448542E0,3.764072571E0,-6.466552734E0,-4.866979065E0,8.925919101E0
7.751369542E0,3.624562683E0,-3.787573700E0,-6.082002411E0,8.029565524E0
7.761291167E0,3.449726257E0,-2.303410034E0,-4.928052063E0,6.441428892E0
7.771212167E0,3.237168274E0,-1.580413513E0,-2.453547821E0,4.358539000E0
7.781133167E0,3.386407928E0,-1.910776520E0,6.728507996E-1,3.946080811E0
7.791054167E0,4.558919678E0,-4.291575623E0,2.280357971E0,6.663437734E0
7.800975167E0,5.485193481E0,-7.172335052E0,1.307231598E0,9.123518624E0
7.810896167E0,5.932912445E0,-8.766519928E0,-2.604583740E-1,1.058863354E1
7.820817167E0,6.516399078E0,-9.414223022E0,-1.229992218E0,1.151537811E1
7.830738167E0,7.035220184E0,-9.710457001E0,-1.537602539E0,1.208931428E1
7.840659167E0,7.076384583E0,-1.009530670E1,-1.315165100E0,1.239839084E1
7.850580167E0,6.778354340E0,-1.046638504E1,-7.857160950E-1,1.249434485E1
7.860501167E0,6.065386963E0,-1.062819855E1,-2.508782959E-1,1.223970846E1
7.870422167E0,4.988376617E0,-1.045545776E1,1.914518738E-1,1.158607579E1
7.880343167E0,3.843407593E0,-9.984836426E0,6.565347290E-1,1.071913141E1
7.890264167E0,2.955005035E0,-9.367669830E0,1.218915253E0,9.898032491E0
7.900185167E0,2.815195770E0,-8.594976654E0,1.715432739E0,9.205523363E0
7.910106167E0,3.812571716E0,-7.956105194E0,1.889820099E0,9.022567980E0
7.920027167E0,4.940775604E0,-7.613767090E0,1.697619781E0,9.233776356E0
7.929948167E0,5.700894928E0,-7.393874359E0,1.321452026E0,9.429518359E0
7.939869167E0,6.187982025E0,-7.182663574E0,9.252259827E-1,9.525640172E0
7.949790167E0,6.310577087E0,-7.135511627E0,5.635780334E-1,9.542354508E0
7.959711167E0,6.084547119E0,-7.327562256E0,2.445913696E-1,9.527576145E0
7.969632167E0,5.775739288E0,-7.459887085E0,-8.247848511E-2,9.434822857E0
7.979553167E0,5.400469666E0,-7.563471680E0,-2.257305908E-1,9.296350400E0
7.989475167E0,4.951702881E0,-7.668104095E0,-1.249900818E-1,9.128789863E0
7.999396167E0,4.373605042E0,-7.777077484E0,1.933978271E-1,8.924615284E0
8.009317167E0,3.712879028E0,-7.944130096E0,6.903643799E-1,8.796094397E0
8.019238167E0,3.230731659E0,-8.291707306E0,1.178050232E0,8.976515997E0
8.029159167E0,3.056793365E0,-8.889564056E0,1.501677246E0,9.519630736E0
8.039080167E0,2.965034180E0,-9.413624268E0,1.590742035E0,9.996910011E0
8.049001167E0,2.973416748E0,-9.749825134E0,1.406175842E0,1.028968551E1
8.058922167E0,3.151696014E0,-9.951904907E0,1.090332642E0,1.049582890E1
8.068843167E0,3.483555908E0,-9.881251831E0,7.075785828E-1,1.050118884E1
8.078764167E0,3.949237518E0,-9.613608398E0,3.716770935E-1,1.039981189E1
8.088685167E0,4.248315582E0,-9.272467804E0,1.673519897E-1,1.020072797E1
8.098606167E0,4.415368195E0,-8.889564056E0,-2.918930054E-2,9.925758279E0
8.108527167E0,4.588857422E0,-8.422834625E0,-1.919009399E-1,9.593674037E0
8.118448167E0,4.872667236E0,-8.062982941E0,-3.073109436E-1,9.425975807E0
8.128369167E0,5.296585693E0,-7.817343750E0,-2.469863892E-1,9.445934871E0
8.138290167E0,5.571713562E0,-7.613767090E0,-7.858657837E-2,9.435020782E0
8.148211167E0,5.706732788E0,-7.449259186E0,7.978408813E-2,9.384275520E0
8.158132167E0,5.793851624E0,-7.380701752E0,2.028282166E-1,9.385340392E0
8.168053167E0,5.806126099E0,-7.402107239E0,2.540217590E-1,9.410994576E0
8.177974167E0,5.866600342E0,-7.435936890E0,1.999841309E-1,9.473655612E0
8.187895167E0,5.898933105E0,-7.618407440E0,1.222956848E-1,9.636000205E0
8.197816167E0,5.787864075E0,-7.764204254E0,1.511856079E-1,9.685303059E0
8.207737167E0,5.591472473E0,-7.862849121E0,1.823208618E-1,9.649984540E0
8.217658167E0,5.483696594E0,-8.004005585E0,2.442919922E-1,9.705396041E0
8.227579167E0,5.220244446E0,-8.284222870E0,1.907034302E-1,9.793654498E0
8.237500167E0,4.997507629E0,-8.411158905E0,8.113128662E-2,9.784133018E0
8.247421167E0,4.898413696E0,-8.520132294E0,-2.095642090E-2,9.827896530E0
8.257342167E0,5.034331055E0,-8.973539429E0,1.025367737E-1,1.028977224E1
8.267263167E0,4.945565643E0,-9.425000610E0,2.668949890E-1,1.064708829E1
8.277185167E0,4.619244232E0,-9.466464386E0,3.787124634E-2,1.053341348E1
8.287106167E0,4.257745972E0,-9.264983368E0,-3.341052246E-1,1.020195784E1
8.297027167E0,4.037853241E0,-9.071136475E0,-6.703060913E-1,9.951838322E0
8.306948167E0,4.024830322E0,-9.136999512E0,-1.000818787E0,1.003422431E1
8.316869167E0,4.251459045E0,-9.458231506E0,-1.189127197E0,1.043777135E1
8.326790167E0,4.722679138E0,-9.838141479E0,-1.140628052E0,1.097240896E1
8.336711167E0,4.933291168E0,-1.021835083E1,-7.725434875E-1,1.137316486E1
8.346632167E0,4.942122803E0,-1.020787262E1,-1.495390320E-1,1.134229268E1
8.356553167E0,4.808301086E0,-9.798623657E0,4.755610657E-1,1.092515186E1
8.366474167E0,4.636308746E0,-9.546996918E0,1.003812561E0,1.066058857E1
8.376395167E0,4.580175476E0,-9.393266602E0,1.303639069E0,1.053142629E1
8.386316167E0,4.451443176E0,-9.524693298E0,1.233135681E0,1.058563897E1
8.396237167E0,4.302502899E0,-9.884395294E0,9.154962158E-1,1.081900803E1
8.406158167E0,4.158652039E0,-1.043435165E1,5.890251160E-1,1.124797901E1
8.416079167E0,4.052373047E0,-1.087278992E1,4.387376404E-1,1.161170869E1
8.426000167E0,4.092040558E0,-1.100750977E1,6.318360901E-1,1.176049676E1
8.435921167E0,4.067341919E0,-1.088281906E1,1.093625793E0,1.166940609E1
8.445842167E0,4.051474915E0,-1.071217392E1,1.562750244E0,1.155886272E1
8.455763167E0,4.073179779E0,-1.082204544E1,1.743424530E0,1.169388687E1
8.465684167E0,3.995191956E0,-1.133742371E1,1.727407837E0,1.214424443E1
8.475605167E0,4.073030090E0,-1.177870605E1,1.509910126E0,1.255417536E1
8.485526167E0,4.343816986E0,-1.147872986E1,1.185085602E0,1.233022356E1
8.495447167E0,4.745581512E0,-1.056981995E1,1.043629761E0,1.163317672E1
8.505368167E0,5.295088806E0,-9.593699799E0,9.785151672E-1,1.100156958E1
8.515289167E0,5.835165710E0,-8.809031525E0,8.162525940E-1,1.059785184E1
8.525210167E0,6.168522491E0,-8.223898315E0,6.457571411E-1,1.030049395E1
8.535131167E0,6.529272308E0,-7.911647644E0,4.758604431E-1,1.026898284E1
8.545052167E0,7.003935242E0,-7.763755188E0,2.959346008E-1,1.046033368E1
8.554974167E0,7.500602417E0,-7.582931213E0,2.263293457E-1,1.066822888E1
8.564895167E0,8.074508972E0,-7.308851166E0,3.423381042E-1,1.089652219E1
8.574816167E0,8.552914124E0,-7.131919098E0,4.608915710E-1,1.114580778E1
8.584737167E0,8.983568573E0,-7.218289490E0,3.522175598E-1,1.152962552E1
8.594658167E0,9.136999512E0,-7.624245300E0,-8.577163696E-2,1.190047198E1
8.604579167E0,9.014254761E0,-8.272247772E0,-5.754034424E-1,1.224818196E1
8.614500167E0,8.621621246E0,-8.780890045E0,-1.024319916E0,1.234850656E1
8.624421167E0,7.903414764E0,-8.907377014E0,-1.299597473E0,1.197890996E1
8.634342167E0,7.102280731E0,-8.915909271E0,-1.248553619E0,1.146711454E1
8.644263167E0,6.240971832E0,-8.850495300E0,-1.054557037E0,1.088085874E1
8.654184167E0,5.365891571E0,-8.870254211E0,-6.018983459E-1,1.038443469E1
8.664105167E0,4.527185669E0,-9.258696442E0,1.827699280E-1,1.030787440E1
8.674026167E0,3.738924866E0,-9.869576111E0,1.002016296E0,1.060151538E1
8.683947167E0,3.405268707E0,-1.011072464E1,2.166145477E0,1.088645002E1
8.693868167E0,3.423081665E0,-1.024319916E1,2.818638611E0,1.116178035E1
8.703789167E0,3.148851929E0,-1.030008087E1,2.699486389E0,1.110379040E1
8.713710167E0,2.574196930E0,-1.037148239E1,2.051633606E0,1.088132976E1
8.723631167E0,2.261646881E0,-1.023257126E1,1.523232422E0,1.058965524E1
8.733552167E0,2.667003937E0,-9.359137573E0,1.303489380E0,9.818627739E0
8.743473167E0,3.804039459E0,-8.315807190E0,1.020577698E0,9.201355567E0
8.753393583E0,5.025649109E0,-7.496860199E0,8.294252014E-1,9.063553827E0
8.763314583E0,5.902974701E0,-6.917564850E0,5.486091614E-1,9.110366940E0
8.773235583E0,6.416257324E0,-6.431525574E0,3.930825806E-1,9.093260866E0
8.783156583E0,6.545887756E0,-6.089935913E0,3.811074829E-1,8.948810472E0
8.793077583E0,6.611900482E0,-5.657784576E0,4.144880676E-1,8.712035047E0
8.802998583E0,6.717580719E0,-5.287005615E0,6.042933655E-1,8.569917710E0
8.812919583E0,6.665938110E0,-5.102888489E0,9.581575012E-1,8.449394512E0
8.822840583E0,6.367009735E0,-4.967420197E0,1.278790741E0,8.176147145E0
8.832761583E0,6.014941864E0,-4.916076965E0,1.595382385E0,7.930484431E0
8.842682583E0,5.671705627E0,-5.002147980E0,1.890568542E0,7.795125307E0
8.852604583E0,5.118456116E0,-5.034331055E0,2.143542480E0,7.492520040E0
8.862525583E0,4.730612640E0,-5.089266815E0,2.339485016E0,7.331611201E0
8.872446583E0,4.524491272E0,-5.183271332E0,2.388732605E0,7.283087699E0
8.882367583E0,4.441563721E0,-5.316643982E0,2.364033966E0,7.320030608E0
8.892288583E0,4.480632477E0,-5.507347412E0,2.399061127E0,7.494160206E0
8.902209583E0,4.509821777E0,-5.719007263E0,2.482288055E0,7.694627381E0
8.912130583E0,4.538861389E0,-5.904471588E0,2.604134674E0,7.889585848E0
8.922051583E0,4.589306488E0,-6.059998169E0,2.672841797E0,8.057877830E0
8.931972583E0,4.653373260E0,-6.208040314E0,2.786305847E0,8.243612528E0
8.941893583E0,4.612358551E0,-6.333329773E0,3.116519165E0,8.431939820E0
8.951814583E0,4.432732086E0,-6.412814484E0,3.533102875E0,8.558978869E0
8.961735583E0,4.354145508E0,-6.521338806E0,3.762276306E0,8.697192992E0
8.971656583E0,4.353696442E0,-6.769223328E0,3.923491058E0,8.953817021E0
8.981577583E0,4.220922546E0,-7.109615479E0,4.240531769E0,9.292197215E0
8.991498583E0,4.060156860E0,-7.483687592E0,4.841681671E0,9.794505353E0
9.001419583E0,4.028123474E0,-7.904163208E0,5.664819946E0,1.052576647E1
9.011340583E0,3.947441254E0,-8.351433105E0,6.528523865E0,1.131151410E1
9.021261583E0,3.584895172E0,-8.879983978E0,7.129823456E0,1.193901048E1
9.031182583E0,2.908751221E0,-9.527537384E0,6.897207184E0,1.211636370E1
9.041103583E0,2.050136719E0,-1.011551468E1,6.042035522E0,1.195963591E1
9.051024583E0,1.354383545E0,-1.061382843E1,5.373226318E0,1.197327314E1
9.060945583E0,9.840536499E-1,-1.105795486E1,5.071603546E0,1.220524026E1
9.070866583E0,1.050066376E0,-1.143292511E1,5.115162964E0,1.256898198E1
9.080787583E0,1.095422058E0,-1.169278473E1,5.394931183E0,1.292387120E1
9.090708583E0,1.370250549E0,-1.154055130E1,5.723946991E0,1.295474739E1
9.100629583E0,1.715432739E0,-1.091874435E1,5.755830688E0,1.246159198E1
9.110550583E0,1.852397919E0,-1.010698242E1,5.186714172E0,1.151019008E1
9.120471583E0,2.059118042E0,-9.235644379E0,4.236939240E0,1.036767806E1
9.130392583E0,2.511926422E0,-8.389454041E0,3.428021393E0,9.404469369E0
9.140313583E0,3.307521973E0,-7.774981842E0,2.887046356E0,8.928890239E0
9.150234583E0,4.372407532E0,-7.341483307E0,1.818867645E0,8.736338150E0
9.160155583E0,5.909561005E0,-6.901248779E0,3.959266663E-1,9.094333615E0
9.170077583E0,7.651937714E0,-6.486012268E0,2.155517578E-2,1.003100048E1
9.179998583E0,9.693392487E0,-6.597979431E0,1.133293304E0,1.178047300E1
9.189919583E0,1.210921875E1,-7.959847412E0,4.251758423E0,1.510197998E1
9.199840583E0,1.476305008E1,-1.097936829E1,9.810449066E0,2.085039775E1
9.209761583E0,1.594065125E1,-1.427641205E1,1.284059784E1,2.495598638E1
9.219682583E0,1.255154892E1,-1.451845871E1,7.073241119E0,2.045379582E1
9.229603583E0,7.182364197E0,-1.033660492E1,-1.779798889E0,1.271217687E1
9.239524583E0,4.591402130E0,-6.139033813E0,-6.916517029E0,1.032506259E1
9.249445583E0,3.477568359E0,-3.706592102E0,-7.427853699E0,9.000295399E0
9.259366583E0,3.062182159E0,-2.729124756E0,-5.604645081E0,6.945295385E0
9.269287583E0,2.707868958E0,-2.231559448E0,-2.999163208E0,4.615993047E0
9.279208583E0,2.463427277E0,-2.219434662E0,-4.331991577E-1,3.343953600E0
9.289129583E0,2.777623901E0,-3.607498169E0,6.001020813E-1,4.592315329E0
9.299050583E0,3.875291290E0,-5.840404816E0,1.308279419E-1,7.010372811E0
9.308971583E0,4.720284119E0,-7.279063110E0,-6.801855469E-1,8.702212035E0
9.318892583E0,4.937931519E0,-8.484356689E0,-8.663983154E-1,9.854852721E0
9.328813583E0,5.170547791E0,-9.693093109E0,-3.598516846E-1,1.099182022E1
9.338734583E0,5.324278107E0,-1.043989014E1,5.927673340E-2,1.171933262E1
9.348655583E0,5.388943634E0,-1.078926361E1,2.760260010E-1,1.206337901E1
9.358576583E0,5.405858459E0,-1.100242035E1,4.828958130E-1,1.226824142E1
9.368497583E0,5.199437714E0,-1.118578903E1,7.866142273E-1,1.236020998E1
9.378418583E0,4.648433533E0,-1.107786346E1,1.044827271E0,1.205896585E1
9.388339583E0,4.131259003E0,-1.033645523E1,1.219364319E0,1.119805595E1
9.398260583E0,3.959266663E0,-9.654922485E0,1.316961365E0,1.051797071E1
9.408181583E0,4.053720245E0,-9.038803711E0,1.308429108E0,9.992227333E0
9.418102583E0,4.439468079E0,-8.343200226E0,1.253942413E0,9.533637208E0
9.428023583E0,4.912634125E0,-7.731721802E0,1.152303772E0,9.232621515E0
9.437944583E0,5.314398651E0,-7.326215057E0,1.079105988E0,9.114863127E0
9.447865583E0,5.649402008E0,-7.194039917E0,1.010548553E0,9.202780110E0
9.457786583E0,5.696104889E0,-7.116501160E0,1.007105713E0,9.170848466E0
9.467707583E0,5.732628937E0,-6.962770844E0,9.964778137E-1,9.073928608E0
9.477628583E0,5.928870850E0,-6.737489319E0,1.087039490E0,9.040294615E0
9.487550583E0,6.180198212E0,-6.746171265E0,1.347946930E0,9.247845024E0
9.497471583E0,6.149661713E0,-6.691534882E0,1.636995850E0,9.234431962E0
9.507392583E0,5.838907928E0,-6.575526123E0,1.899100800E0,8.996497843E0
9.517313583E0,5.440885620E0,-6.756200409E0,1.984123993E0,8.898664412E0
9.527234583E0,5.021906891E0,-7.427704010E0,1.682201843E0,9.122507261E0
9.537155583E0,4.560865631E0,-8.246800690E0,1.169517975E0,9.496261855E0
9.547076583E0,4.046235809E0,-9.183702393E0,7.198530579E-1,1.006134197E1
9.556997583E0,3.543880463E0,-9.958640900E0,3.543132019E-1,1.057634886E1
9.566918583E0,3.119812317E0,-1.049632278E1,9.475296021E-2,1.095057072E1
9.576839583E0,2.904260559E0,-1.080528030E1,-2.125579834E-2,1.118880081E1
9.586760583E0,3.012934570E0,-1.061712158E1,2.709365845E-2,1.103638435E1
9.596681583E0,3.573369141E0,-9.922416229E0,1.528321838E-1,1.054735363E1
9.606602583E0,4.233496399E0,-9.069639587E0,2.565664673E-1,1.001232642E1
9.616523583E0,4.694537659E0,-8.351133728E0,2.790197754E-1,9.584256383E0
9.626444583E0,5.052892456E0,-7.808362427E0,1.465452576E-1,9.301812806E0
9.636365583E0,5.385650482E0,-7.496411133E0,-2.529739380E-2,9.230495704E0
9.646286583E0,5.634433136E0,-7.327562256E0,-1.496887207E-1,9.244588260E0
9.656207583E0,5.778882751E0,-7.338788910E0,-2.725831604E-1,9.344924296E0
9.666128583E0,5.992488556E0,-7.355554047E0,-3.153941345E-1,9.492816647E0
9.676049583E0,6.203699341E0,-7.585475922E0,-2.603086853E-1,9.802708354E0
9.685970583E0,6.411317596E0,-7.617509308E0,-8.038284302E-2,9.956801835E0
9.695891583E0,6.461613007E0,-7.523804169E0,2.094145203E-1,9.919875315E0
9.705812583E0,6.233487396E0,-7.551945648E0,5.182223511E-1,9.805957505E0
9.715733583E0,5.961353302E0,-7.670199738E0,7.527845764E-1,9.743530255E0
9.725654583E0,5.638774109E0,-7.963889008E0,8.352630615E-1,9.793720741E0
9.735575583E0,5.204227753E0,-8.348589020E0,7.234455872E-1,9.864395503E0
9.745496583E0,4.747826843E0,-8.713679810E0,4.778063965E-1,9.934705557E0
9.755417292E0,4.462819519E0,-8.978778534E0,1.540296936E-1,1.002790841E1
9.765338292E0,4.364474030E0,-9.077423401E0,-1.348695374E-1,1.007305509E1
9.775259292E0,4.324207764E0,-9.173523560E0,-2.257305908E-1,1.014412449E1
9.785180292E0,4.369563446E0,-9.093140717E0,-2.767744446E-1,1.009231871E1
9.795101292E0,4.517755280E0,-8.922495575E0,-3.067121887E-1,1.000575397E1
9.805022292E0,4.689897308E0,-8.723409576E0,-3.128494263E-1,9.909131454E0
9.814943292E0,4.800666962E0,-8.496481476E0,-3.480262756E-1,9.765127907E0
9.824865292E0,4.914879456E0,-8.322393494E0,-4.207749939E-1,9.674467692E0
9.834786292E0,4.998405762E0,-8.116272125E0,-5.388793945E-1,9.547163158E0
9.844707292E0,5.176984406E0,-7.992030487E0,-6.158193970E-1,9.542167069E0
9.854628292E0,5.351970520E0,-7.965984650E0,-5.848338318E-1,9.614703869E0
9.864549292E0,5.251529388E0,-8.139024811E0,-5.011578369E-1,9.699146610E0
9.874470292E0,5.274132385E0,-8.418793030E0,-4.076023865E-1,9.942770650E0
9.884391292E0,5.304968262E0,-8.748557281E0,-4.216731262E-1,1.024000737E1
9.894312292E0,5.217699738E0,-9.125323792E0,-4.321513367E-1,1.052058362E1
9.904233292E0,5.088668060E0,-9.411678314E0,-4.505630493E-1,1.070874588E1
9.914154292E0,4.876110077E0,-9.657766571E0,-4.742138672E-1,1.082930207E1
9.924075292E0,4.749174042E0,-9.983788605E0,-4.782554626E-1,1.106613832E1
9.933996292E0,4.740192719E0,-1.038181091E1,-3.776646423E-1,1.141902165E1
9.943917292E0,4.648433533E0,-1.062969543E1,-1.942959595E-1,1.160328015E1
9.953838292E0,4.629123688E0,-1.069855225E1,-1.646575928E-2,1.165710416E1
9.963759292E0,4.635560303E0,-1.083791245E1,1.372645569E-1,1.178845228E1
9.973680292E0,4.611161041E0,-1.124686203E1,2.366578674E-1,1.215774315E1
9.983601292E0,4.764741669E0,-1.156390274E1,2.701881409E-1,1.250998047E1
9.993522292E0,4.788392487E0,-1.145223495E1,3.847000122E-1,1.241895254E1
1.000344329E1,4.861889648E0,-1.102652023E1,6.791377258E-1,1.206993569E1
1.001336429E1,5.304818573E0,-1.029648834E1,1.147813110E0,1.163942641E1
1.002328529E1,5.455255737E0,-9.760153656E0,1.530118103E0,1.128546304E1
1.003320629E1,5.814808044E0,-9.186097412E0,1.807341614E0,1.102101910E1
1.004312729E1,6.159092102E0,-8.532855835E0,1.729802856E0,1.066472044E1
1.005304829E1,6.433920593E0,-7.797135773E0,1.508113861E0,1.022081542E1
1.006296929E1,6.501280518E0,-7.115004272E0,1.332229614E0,9.729582206E0
1.007289029E1,6.470145264E0,-6.502927094E0,1.014889526E0,9.229346741E0
1.008281129E1,6.472540283E0,-6.038742371E0,6.399192810E-1,8.875228663E0
1.009273229E1,6.603966980E0,-5.661526794E0,4.599934387E-1,8.710732431E0
1.010265329E1,6.833739166E0,-5.507197723E0,5.257067871E-1,8.792359489E0
1.011257429E1,7.066505127E0,-5.742059326E0,7.520361328E-1,9.136317549E0
1.012249529E1,7.100035400E0,-6.313720551E0,8.837622070E-1,9.542253692E0
1.013241629E1,7.041956177E0,-7.015461273E0,8.378077698E-1,9.975357915E0
1.014233729E1,6.856491852E0,-7.729177094E0,5.797444153E-1,1.034832173E1
1.015225829E1,6.613397369E0,-8.423732758E0,3.152444458E-1,1.071427447E1
1.016217929E1,6.476731567E0,-9.100475464E0,1.508862305E-1,1.117092083E1
1.017210029E1,6.521189117E0,-9.713600464E0,1.152603149E-1,1.170013788E1
1.018202129E1,6.695127411E0,-1.018931122E1,4.685256958E-2,1.219216918E1
1.019194229E1,6.661597137E0,-1.049542465E1,-3.008743286E-1,1.243468296E1
1.020186329E1,6.186934204E0,-1.070214478E1,-9.181906128E-1,1.239585139E1
1.021178529E1,5.567821655E0,-1.069989944E1,-1.561103668E0,1.216246401E1
1.022170629E1,4.843777313E0,-1.049946625E1,-1.787433014E0,1.170025158E1
1.023162729E1,4.287983093E0,-1.004665787E1,-1.413809967E0,1.101458088E1
1.024154829E1,3.940405884E0,-9.594597931E0,-5.263055420E-1,1.038557199E1
1.025146929E1,3.746109924E0,-9.242829437E0,6.514453125E-1,9.994379249E0
1.026139029E1,3.914509735E0,-8.932674408E0,1.479373627E0,9.864309650E0
1.027131129E1,3.820505219E0,-8.787775726E0,1.992207184E0,9.787244342E0
1.028123229E1,3.437900848E0,-8.865613861E0,1.994153137E0,9.715704715E0
1.029115329E1,3.112327881E0,-8.952732697E0,1.675316162E0,9.625211261E0
1.030107429E1,3.081941071E0,-8.957971802E0,1.442999268E0,9.582581408E0
1.031099529E1,3.284320221E0,-8.856183472E0,1.401236115E0,9.548937514E0
1.032091629E1,3.662882996E0,-8.734785919E0,1.461860046E0,9.583852654E0
1.033083729E1,4.181255035E0,-8.596772919E0,1.393152924E0,9.660655948E0
1.034075829E1,4.973856812E0,-8.252039795E0,1.127305756E0,9.700836594E0
1.035067929E1,5.578299866E0,-7.917635193E0,9.255253601E-1,9.729489896E0
1.036060029E1,5.984555054E0,-7.599546661E0,8.810678101E-1,9.713098843E0
1.037052129E1,6.289620667E0,-7.388635254E0,1.113684082E0,9.766859847E0
1.038044229E1,6.487209778E0,-7.195536804E0,1.437311096E0,9.794156615E0
1.039036329E1,6.447392578E0,-6.979535980E0,1.816472626E0,9.673797928E0
1.040028429E1,6.264023895E0,-6.969656525E0,2.193837891E0,9.624293851E0
1.041020529E1,6.058800659E0,-7.123237152E0,2.447111206E0,9.666329511E0
1.042012629E1,5.738017731E0,-7.301666107E0,2.642305298E0,9.655099829E0
1.043004729E1,5.230123901E0,-7.577991486E0,2.980751495E0,9.678069562E0
1.043996829E1,4.932991791E0,-7.804171143E0,2.995121613E0,9.706196408E0
1.044988929E1,4.658312988E0,-8.066725159E0,3.021167450E0,9.792823262E0
1.045981029E1,4.268673248E0,-8.409362640E0,3.147355042E0,9.942071971E0
1.046973129E1,4.073030090E0,-8.621770935E0,3.058739319E0,1.001400991E1
1.047965229E1,3.764671326E0,-8.807983704E0,2.862198029E0,9.997274862E0
1.048957329E1,3.495980072E0,-8.918154602E0,2.596949615E0,9.924691707E0
1.049949429E1,3.457061005E0,-8.753347321E0,2.317780151E0,9.692495289E0
1.050941529E1,3.476071472E0,-8.442144470E0,2.135758667E0,9.376264780E0
1.051933629E1,3.573219452E0,-8.007448425E0,2.013912048E0,8.996831068E0
1.052925729E1,3.726201324E0,-7.571255493E0,1.956730957E0,8.662406253E0
1.053917829E1,3.976480865E0,-7.193590851E0,1.953437805E0,8.448435871E0
1.054909929E1,4.277355194E0,-6.852001190E0,1.963466949E0,8.312694523E0
1.055902029E1,4.659809875E0,-6.585405579E0,2.070644073E0,8.328803131E0
1.056894129E1,5.119204559E0,-6.333928528E0,2.279609528E0,8.457039997E0
1.057886329E1,5.533692627E0,-6.132447510E0,2.394869843E0,8.600236515E0
1.058878429E1,5.730682983E0,-6.043233032E0,2.347119141E0,8.652766101E0
1.059870529E1,6.448739777E0,-5.858816528E0,1.995051270E0,8.938243977E0
1.060862629E1,6.577472076E0,-5.915847931E0,2.090852051E0,9.090217707E0
1.061854729E1,6.397845612E0,-6.043382721E0,2.252216492E0,9.084458284E0
1.062846829E1,6.206393738E0,-6.181096344E0,2.372266846E0,9.074851251E0
1.063838929E1,5.941893768E0,-6.398893433E0,2.540816345E0,9.094376637E0
1.064831029E1,5.837111664E0,-6.636000366E0,2.633922729E0,9.222034612E0
1.065823129E1,5.676046600E0,-6.855144653E0,2.734363861E0,9.310599280E0
1.066815229E1,5.521567841E0,-7.166048126E0,3.054697723E0,9.548357730E0
1.067807329E1,5.165308685E0,-7.597750397E0,4.024980011E0,1.003028858E1
1.068799429E1,4.969964905E0,-7.862849121E0,4.994663544E0,1.055801171E1
1.069791529E1,6.512058105E0,-7.573051758E0,5.862708435E0,1.158142322E1
1.070783629E1,8.877289581E0,-6.902895355E0,6.686595154E0,1.308307263E1
1.071775729E1,9.525292053E0,-6.248007202E0,7.185956726E0,1.346873256E1
1.072767829E1,8.759185181E0,-5.505251770E0,6.871610413E0,1.241974846E1
1.073759929E1,7.239694977E0,-4.960833893E0,6.347101135E0,1.083091636E1
1.074752029E1,5.902525635E0,-4.932542725E0,5.640720062E0,9.538737307E0
1.075744133E1,4.501289520E0,-5.756429443E0,4.427642670E0,8.544127041E0
1.076736233E1,3.197500763E0,-7.258406067E0,1.892813873E0,8.154214500E0
1.077728333E1,4.324956207E0,-8.189619598E0,-1.464255066E0,9.376521650E0
1.078720433E1,6.123017120E0,-7.988737335E0,-3.388054504E0,1.062027195E1
1.079712533E1,6.341412964E0,-7.984546051E0,-3.301684113E0,1.071763089E1
1.080704633E1,6.204747162E0,-8.996741180E0,2.378553772E-1,1.093145985E1
1.081696733E1,7.356302490E0,-1.082773361E1,9.058263245E0,1.591876674E1
1.082688833E1,9.432185669E0,-1.044273422E1,1.212343918E1,1.857403031E1
1.083680933E1,9.345815277E0,-8.342601471E0,8.302035828E0,1.502887426E1
1.084673033E1,8.242908783E0,-6.770869904E0,3.436254272E0,1.120705438E1
1.085665133E1,7.167395325E0,-5.852379913E0,-4.444258118E-1,9.263877195E0
1.086657233E1,6.600075073E0,-5.252726898E0,-1.742227020E0,8.613215766E0
1.087649333E1,6.399941254E0,-5.197641449E0,-1.341959381E0,8.353177818E0
1.088641433E1,5.741310883E0,-5.992189178E0,-2.369572449E-1,8.302116028E0
1.089633533E1,4.773273926E0,-7.486232300E0,6.536906433E-1,8.902535003E0
1.090625633E1,3.924538879E0,-8.897497559E0,5.938151550E-1,9.742693912E0
1.091617733E1,3.356320496E0,-9.747430115E0,3.647914124E-1,1.031553944E1
1.092609833E1,3.333418121E0,-9.959539032E0,4.451742554E-1,1.051200619E1
1.093601933E1,2.922971649E0,-1.040935364E1,1.016236725E0,1.085961065E1
1.094594033E1,2.045646057E0,-1.083581680E1,2.137405243E0,1.123245720E1
1.095586133E1,1.185684357E0,-1.089165070E1,3.291954346E0,1.143988049E1
1.096578233E1,7.807763672E-1,-1.054302567E1,3.919898529E0,1.127522090E1
1.097570333E1,1.247954865E0,-9.983189850E0,3.604953461E0,1.068724288E1
1.098562433E1,2.435884552E0,-9.451944580E0,2.810854797E0,1.015744528E1
1.099554533E1,3.243455200E0,-9.045090637E0,2.159409485E0,9.848691060E0
1.100546733E1,3.688928833E0,-8.793164520E0,1.416204987E0,9.640206159E0
1.101538833E1,3.923341370E0,-8.651259613E0,4.125421143E-1,9.508264373E0
1.102530933E1,4.054019623E0,-8.594228210E0,-5.188211060E-1,9.516564978E0
1.103523033E1,4.124523010E0,-8.659193115E0,-1.093027039E0,9.653394407E0
1.104515133E1,4.157753906E0,-8.868457947E0,-1.273551636E0,9.877165467E0
1.105507233E1,4.197122040E0,-9.228010254E0,-1.170715485E0,1.020502726E1
1.106499333E1,4.311184845E0,-9.476643219E0,-7.936495972E-1,1.044140609E1
1.107491433E1,4.426445160E0,-9.594597931E0,-2.327659607E-1,1.056900687E1
1.108483533E1,4.596341858E0,-9.481582947E0,3.121009827E-1,1.054154546E1
1.109475633E1,4.645888824E0,-9.260343018E0,7.854167175E-1,1.039014510E1
1.110467733E1,4.774321747E0,-9.006620636E0,9.626481628E-1,1.023914327E1
1.111459833E1,5.017565918E0,-8.627459106E0,7.803273010E-1,1.001089052E1
1.112451933E1,5.139412537E0,-8.367150421E0,5.206173706E-1,9.833301065E0
1.113444033E1,5.244643707E0,-8.268954620E0,2.734812927E-1,9.795748575E0
1.114436133E1,5.315745850E0,-8.271050262E0,4.056564331E-2,9.832043122E0
1.115428233E1,5.370082855E0,-8.252039795E0,-2.698887634E-1,9.849202536E0
1.116420333E1,5.224136353E0,-8.429570618E0,-7.408094788E-1,9.944750380E0
1.117412433E1,4.992418213E0,-8.590935059E0,-1.190773773E0,1.000731467E1
1.118404533E1,4.817581787E0,-8.656947784E0,-1.376687164E0,1.000235506E1
1.119396633E1,4.724026337E0,-8.626411285E0,-1.235231323E0,9.912476629E0
1.120388733E1,4.644541626E0,-8.565787354E0,-8.366102600E-1,9.779795326E0
1.121380833E1,4.455634460E0,-8.526419220E0,-4.382885742E-1,9.630399786E0
1.122372933E1,4.165687408E0,-8.575666809E0,-3.061134338E-1,9.538800671E0
1.123365033E1,4.047583008E0,-8.617280273E0,-3.394940186E-1,9.526578804E0
1.124357133E1,4.165687408E0,-8.647068329E0,-5.340893555E-1,9.613011688E0
1.125349233E1,4.125271454E0,-8.807085571E0,-7.689509583E-1,9.755711476E0
1.126341333E1,4.044140167E0,-8.888216858E0,-9.882449341E-1,9.814891576E0
1.127333433E1,3.794459381E0,-8.971144409E0,-1.170715485E0,9.810704804E0
1.128325533E1,3.667074280E0,-8.994346161E0,-1.275347900E0,9.796540660E0
1.129317633E1,3.851939850E0,-8.935219116E0,-1.324745178E0,9.819904839E0
1.130309733E1,4.113745422E0,-8.846154327E0,-1.435215454E0,9.860892008E0
1.131301833E1,4.444707184E0,-8.673263855E0,-1.566043396E0,9.870836832E0
1.132293933E1,4.727020111E0,-8.427175598E0,-1.448088684E0,9.770310565E0
1.133286033E1,4.944966888E0,-8.080795898E0,-1.230141907E0,9.553282629E0
1.134278133E1,5.177433472E0,-7.830216980E0,-1.087039490E0,9.449855563E0
1.135270233E1,5.518424377E0,-7.724985809E0,-9.119036865E-1,9.537294255E0
1.136262333E1,5.895639954E0,-7.722291412E0,-8.099656677E-1,9.749276871E0
1.137254433E1,6.262826385E0,-7.796836395E0,-7.819738770E-1,1.003120807E1
1.138246533E1,6.617738342E0,-7.872878265E0,-7.134164429E-1,1.030949252E1
1.139238633E1,6.837780762E0,-7.989186401E0,-7.176077271E-1,1.054027068E1
1.140230733E1,6.930587769E0,-8.130791931E0,-7.670050049E-1,1.071126141E1
1.141222833E1,6.884184265E0,-8.208630066E0,-8.354127502E-1,1.074576731E1
1.142214933E1,6.393504639E0,-8.402177582E0,-7.529342651E-1,1.058491378E1
1.143207033E1,5.682932281E0,-8.629105682E0,-5.489085388E-1,1.034690702E1
1.144199133E1,5.197641449E0,-8.743467865E0,-5.477110291E-1,1.018644660E1
1.145191233E1,4.737348633E0,-8.831933899E0,-7.173083496E-1,1.004788832E1
1.146183333E1,4.276307373E0,-8.934620361E0,-9.244775391E-1,9.948311639E0
1.147175533E1,3.999682617E0,-8.980874176E0,-1.085692291E0,9.891020663E0
1.148167633E1,3.946243744E0,-9.000184021E0,-1.136287079E0,9.892790325E0
1.149159733E1,4.011358337E0,-9.043743439E0,-1.167572021E0,9.962103971E0
1.150151833E1,4.074077911E0,-8.976383514E0,-1.116677856E0,9.920712740E0
1.151143933E1,4.065545654E0,-8.797206116E0,-1.056053925E0,9.748576655E0
1.152136033E1,3.992048492E0,-8.728948059E0,-1.054557037E0,9.656245436E0
1.153128133E1,4.103267212E0,-8.540789337E0,-1.011746063E0,9.529192747E0
1.154120233E1,4.351600800E0,-8.539891205E0,-9.734257507E-1,9.633988219E0
1.155112333E1,4.487518158E0,-8.748706970E0,-9.259744263E-1,9.875987116E0
1.156104433E1,4.318070526E0,-9.044940948E0,-9.698332214E-1,1.006962096E1
1.157096533E1,4.428840179E0,-8.968899078E0,-1.045875092E0,1.005731727E1
1.158088633E1,4.499642944E0,-8.792715454E0,-1.116228790E0,9.940050221E0
1.159080733E1,4.564158783E0,-8.592731323E0,-1.115779724E0,9.793443796E0
1.160072833E1,4.678670654E0,-8.349786530E0,-9.815089417E-1,9.621447603E0
1.161064933E1,4.909939728E0,-8.097860413E0,-7.601193237E-1,9.500559603E0
1.162057033E1,5.119953003E0,-7.886649628E0,-3.603007507E-1,9.409727825E0
1.163049133E1,5.249134369E0,-7.775281219E0,-1.374142456E-1,9.382286093E0
1.164041233E1,5.206772461E0,-7.860454102E0,-3.743714905E-1,9.435961644E0
1.165033333E1,5.079387360E0,-7.945028229E0,-7.012916565E-1,9.455974804E0
1.166025433E1,5.088817749E0,-7.975864105E0,-8.416996765E-1,9.498364736E0
1.167017533E1,5.035678253E0,-8.383466492E0,-8.542735291E-1,9.816840080E0
1.168009633E1,4.667593689E0,-8.913065186E0,-7.186555481E-1,1.008690377E1
1.169001733E1,4.254901886E0,-9.280251617E0,-5.028044128E-1,1.022154941E1
1.169993833E1,4.014352112E0,-9.548493805E0,-2.962339783E-1,1.036226382E1
1.170985933E1,3.939208374E0,-9.742640076E0,-1.546284485E-1,1.051000991E1
1.171978033E1,3.927083588E0,-9.919123077E0,-3.667373657E-2,1.066828632E1
1.172970133E1,3.970942383E0,-1.010114456E1,-2.013313293E-1,1.085550732E1
1.173962233E1,4.064198456E0,-1.024783951E1,-5.571414185E-1,1.103840252E1
1.174954333E1,4.095633087E0,-1.025741959E1,-9.346563721E-1,1.108433352E1
1.175946492E1,4.292773132E0,-1.006776398E1,-1.255738678E0,1.101656263E1
1.176938592E1,4.622687073E0,-9.670340424E0,-1.246607666E0,1.079067886E1
1.177930692E1,5.117258606E0,-9.211843872E0,-8.837622070E-1,1.057475479E1
1.178922792E1,5.833219757E0,-8.659941559E0,-3.375480652E-1,1.044676884E1
1.179914892E1,6.765181732E0,-8.117769012E0,4.131408691E-1,1.057527981E1
1.180906992E1,7.549850006E0,-7.747588806E0,1.221010895E0,1.088651620E1
1.181899092E1,8.164022827E0,-7.503446503E0,1.741777954E0,1.122438277E1
1.182891192E1,8.150999908E0,-7.409142609E0,2.021097107E0,1.119906368E1
1.183883292E1,7.661817169E0,-7.352410583E0,1.814077606E0,1.077275551E1
1.184875392E1,7.284152527E0,-7.184759216E0,1.334774323E0,1.031800686E1
1.185867492E1,7.152127075E0,-6.982529755E0,9.732760620E-1,1.004270431E1
1.186859592E1,6.948999481E0,-6.875352631E0,6.801855469E-1,9.799067301E0
1.187851692E1,6.593937836E0,-6.861281891E0,4.649331665E-1,9.527505876E0
1.188843792E1,6.311475220E0,-6.714586945E0,5.143304443E-1,9.229568413E0
1.189835892E1,5.948779449E0,-7.000642090E0,6.400689697E-1,9.209052877E0
1.190827992E1,5.755531311E0,-7.324269104E0,8.382568359E-1,9.352739337E0
1.191820092E1,5.724246368E0,-7.582033081E0,1.115031281E0,9.565433439E0
1.192812192E1,5.836512909E0,-7.775281219E0,1.393601990E0,9.821507394E0
1.193804292E1,5.964496765E0,-7.828570404E0,1.579814758E0,9.967825786E0
1.194796392E1,6.096222839E0,-7.734715576E0,1.580862579E0,9.974411484E0
1.195788592E1,6.207591248E0,-7.600145416E0,1.442250824E0,9.918492168E0
1.196780692E1,6.269562378E0,-7.497159576E0,1.261127472E0,9.854199949E0
1.197772792E1,6.211183777E0,-7.479945374E0,1.217867432E0,9.798550290E0
1.198764892E1,6.076463928E0,-7.523504791E0,1.256936188E0,9.752252396E0
1.199756992E1,6.039341125E0,-7.621550903E0,1.344653778E0,9.816810744E0
1.200749092E1,6.198460236E0,-7.841593323E0,1.423988800E0,1.009649638E1
1.201741192E1,6.443650360E0,-8.084388428E0,1.335822144E0,1.042412524E1
1.202733292E1,6.535409546E0,-8.241860962E0,1.156195679E0,1.058190146E1
1.203725392E1,6.447242889E0,-8.376580811E0,8.419990540E-1,1.060391481E1
1.204717492E1,6.255940704E0,-8.545279999E0,2.627037048E-1,1.059375371E1
1.205709592E1,6.289470978E0,-8.684490509E0,-6.735992432E-2,1.072298270E1
1.206701692E1,6.616091766E0,-8.709787903E0,-2.842588806E-1,1.094138376E1
1.207693792E1,6.826254730E0,-8.655301208E0,-4.183799744E-1,1.103118464E1
1.208685892E1,6.896608429E0,-8.501271515E0,-4.212240601E-1,1.095501049E1
1.209677992E1,6.910679169E0,-8.211474152E0,-3.881428528E-1,1.073948086E1
1.210670092E1,6.796466675E0,-7.902217255E0,-8.592132568E-2,1.042326145E1
1.211662192E1,6.753955078E0,-7.605983276E0,4.116439819E-1,1.018019359E1
1.212654292E1,6.901697845E0,-7.318880310E0,9.050180054E-1,1.010042077E1
1.213646392E1,7.176975403E0,-7.030879211E0,1.321152649E0,1.013349312E1
1.214638492E1,7.391928406E0,-6.927743683E0,1.574276276E0,1.025244283E1
1.215630592E1,7.495363312E0,-6.960525513E0,1.832788696E0,1.039175158E1
1.216622692E1,7.458240509E0,-7.068600769E0,2.279609528E0,1.052554454E1
1.217614792E1,7.477550354E0,-7.152276764E0,2.735561371E0,1.070290233E1
1.218606892E1,7.597151642E0,-7.179220734E0,3.107238464E0,1.090471707E1
1.219598992E1,7.344327393E0,-7.381450195E0,3.395988007E0,1.095251964E1
1.220591092E1,7.245832214E0,-7.420968018E0,3.270997925E0,1.087530589E1
1.221583192E1,7.213948517E0,-7.262297974E0,2.978356476E0,1.066079886E1
1.222575292E1,6.718628540E0,-7.242988129E0,2.763403473E0,1.025852062E1
1.223567392E1,6.544241180E0,-7.250921631E0,2.546654205E0,1.009397864E1
1.224559492E1,6.614894257E0,-7.041357422E0,2.323468323E0,9.936601301E0
1.225551592E1,6.630910950E0,-6.938970337E0,2.354603577E0,9.882431248E0
1.226543692E1,6.652316437E0,-6.845714264E0,2.536475372E0,9.876782121E0
1.227535792E1,6.481521606E0,-6.352789307E0,2.900668030E0,9.527955149E0
1.228527892E1,6.551126862E0,-5.730533295E0,2.838846588E0,9.155070996E0
1.229519992E1,6.476731567E0,-5.312153320E0,2.862647095E0,8.852218540E0
1.230512092E1,6.306984558E0,-5.064717865E0,3.035238190E0,8.639565506E0
1.231504192E1,6.085145874E0,-4.893923035E0,3.071313171E0,8.391212521E0
1.232496292E1,5.666466522E0,-4.555925903E0,3.063679047E0,7.889957730E0
1.233488392E1,5.346282349E0,-4.567601624E0,3.031945038E0,7.657572086E0
1.234480492E1,5.054389343E0,-4.786147156E0,3.184926910E0,7.654921009E0
1.235472592E1,4.856949921E0,-4.965324554E0,3.430266724E0,7.746685760E0
1.236464692E1,4.712051239E0,-5.193450165E0,3.316054230E0,7.757033399E0
1.237456792E1,4.351451111E0,-5.502407684E0,3.695814514E0,7.929102220E0
1.238448892E1,4.149670715E0,-5.748645630E0,3.998784485E0,8.139838511E0
1.239440992E1,4.075874176E0,-5.957910461E0,4.189787292E0,8.346482188E0
1.240433092E1,4.058959351E0,-6.134992218E0,4.368815002E0,8.555689630E0
1.241425192E1,4.080813904E0,-6.306535492E0,4.588857422E0,8.802445369E0
1.242417292E1,4.052971802E0,-6.474037170E0,4.821473694E0,9.032516055E0
1.243409392E1,3.997736664E0,-6.637347565E0,4.994513855E0,9.218538375E0
1.244401492E1,3.955225067E0,-6.723867645E0,5.027595062E0,9.280674197E0
1.245393592E1,3.914809113E0,-6.720574493E0,5.097200317E0,9.299102268E0
1.246385692E1,3.730841675E0,-6.685547333E0,5.262456665E0,9.290273026E0
1.247377792E1,3.612587585E0,-6.697821808E0,5.338947601E0,9.296018907E0
1.248369892E1,3.600013733E0,-6.765181732E0,5.361400909E0,9.352668200E0
1.249361992E1,3.633244629E0,-6.882537689E0,5.555547180E0,9.562107302E0
1.250354092E1,3.754193115E0,-7.040758667E0,5.716462555E0,9.815507766E0
1.251346192E1,3.896547089E0,-7.164850616E0,5.676495667E0,9.936838865E0
1.252338292E1,4.047583008E0,-7.145540771E0,5.561983795E0,9.918535419E0
1.253330492E1,4.270768890E0,-7.000492401E0,5.596262512E0,9.927966301E0
1.254322592E1,4.616998901E0,-6.784491577E0,5.678740997E0,9.979684571E0
1.255314692E1,4.914280701E0,-6.580016785E0,5.702391815E0,9.998202244E0
1.256306792E1,5.057832184E0,-6.496939545E0,5.665119324E0,9.994271699E0
1.257298892E1,4.976251831E0,-6.574029236E0,5.542673950E0,9.934896939E0
1.258290992E1,4.599635010E0,-6.799759827E0,5.376968536E0,9.813519581E0
1.259283092E1,4.038302307E0,-7.117249603E0,5.159919891E0,9.674083973E0
1.260275192E1,3.611090698E0,-7.451654205E0,4.861590271E0,9.602196956E0
1.261267292E1,3.630101166E0,-7.732769623E0,4.750521240E0,9.774498072E0
1.262259392E1,4.351900177E0,-7.842641144E0,4.587360535E0,1.007422116E1
1.263251492E1,5.140160980E0,-7.943830719E0,4.085304565E0,1.030608630E1
1.264243592E1,5.546715546E0,-8.136180725E0,3.656745758E0,1.050406015E1
1.265235692E1,6.653214569E0,-7.974217529E0,3.552562408E0,1.097606983E1
1.266227792E1,7.587272186E0,-7.618108063E0,3.870501251E0,1.142729406E1
1.267219892E1,8.375682678E0,-7.170389099E0,4.767436066E0,1.201228483E1
1.268211992E1,9.106313324E0,-6.896159363E0,6.267017670E0,1.302910077E1
1.269204092E1,9.522447968E0,-7.087910614E0,8.091124420E0,1.436599410E1
1.270196192E1,9.598489838E0,-7.784262543E0,9.377100220E0,1.551308348E1
1.271188292E1,8.811725922E0,-8.635242920E0,8.400081940E0,1.492565947E1
1.272180392E1,7.279512177E0,-9.119186554E0,4.864434357E0,1.264173970E1
1.273172492E1,6.110293579E0,-8.875493317E0,9.765692139E-1,1.081960058E1
1.274164592E1,5.206024017E0,-7.980055389E0,-1.273252258E0,9.612759302E0
1.275156692E1,4.278253326E0,-7.049440613E0,-1.957329712E0,8.475211152E0
1.276148717E1,3.644620972E0,-6.447242889E0,-1.593735809E0,7.575631771E0
1.277140817E1,3.496878204E0,-6.180497589E0,-8.909472656E-1,7.156849492E0
1.278132917E1,3.276985474E0,-6.216871948E0,-3.167413330E-1,7.034803173E0
1.279125017E1,3.313509521E0,-6.510561218E0,-1.360670471E-1,7.306522221E0
1.280117117E1,3.907474365E0,-6.956334229E0,-2.918930054E-1,7.983992945E0
1.281109217E1,4.888983307E0,-7.547604675E0,-3.124003601E-1,8.998115808E0
1.282101317E1,5.715265045E0,-8.249046021E0,-1.212478638E-1,1.003622020E1
1.283093417E1,6.312373352E0,-8.849297791E0,1.694476318E-1,1.087128517E1
1.284085517E1,6.658154297E0,-9.200766907E0,4.441264343E-1,1.136584263E1
1.285077617E1,6.581214294E0,-9.352401581E0,4.980143738E-1,1.144673819E1
1.286069717E1,6.248007202E0,-9.179660797E0,5.050497437E-1,1.111570248E1
1.287061817E1,5.771997070E0,-8.724906464E0,4.203259277E-1,1.046979545E1
1.288053917E1,5.477409668E0,-8.241262207E0,2.002835083E-1,9.897501347E0
1.289046017E1,5.530698853E0,-7.800129547E0,-1.618135071E-1,9.563306665E0
1.290038117E1,5.593867493E0,-7.530240784E0,-4.971162415E-1,9.393774765E0
1.291030217E1,5.434449005E0,-7.435038757E0,-6.554869080E-1,9.232697352E0
1.292022317E1,5.379064178E0,-7.454348602E0,-6.165678406E-1,9.213131955E0
1.293014417E1,5.460943909E0,-7.650141449E0,-4.183799744E-1,9.408592582E0
1.294006517E1,5.576204224E0,-7.969577179E0,-9.445358276E-2,9.727133978E0
1.294998617E1,5.723497925E0,-8.371790771E0,3.406915283E-1,1.014698871E1
1.295990717E1,5.623505859E0,-8.794661407E0,6.968009949E-1,1.046209439E1
1.296982817E1,5.365143127E0,-9.223220215E0,8.536747742E-1,1.070426609E1
1.297974917E1,4.988077240E0,-9.487720184E0,8.985813904E-1,1.075663504E1
1.298967017E1,4.745731201E0,-9.504485321E0,9.328601074E-1,1.066430653E1
1.299959117E1,4.680167542E0,-9.382788391E0,9.834548950E-1,1.053128054E1
1.300951217E1,4.623585205E0,-8.984167328E0,7.752378845E-1,1.013379477E1
1.301943317E1,4.596192169E0,-8.704099731E0,5.782475281E-1,9.860056024E0
1.302935417E1,4.560117188E0,-8.466394043E0,4.875361633E-1,9.628716860E0
1.303927517E1,4.512665863E0,-8.307424622E0,1.489402771E-1,9.455138298E0
1.304919617E1,4.544699249E0,-8.197852478E0,-1.941462708E-1,9.375327690E0
1.305911717E1,4.860093384E0,-8.159232788E0,-4.161346436E-1,9.506143037E0
1.306903817E1,5.148244171E0,-8.153694305E0,-5.304968262E-1,9.657565726E0
1.307895917E1,5.225633240E0,-8.269553375E0,-2.938389587E-1,9.786679576E0
1.308888017E1,5.116659851E0,-8.462202759E0,1.139131165E-1,9.889492391E0
1.309880117E1,4.811294861E0,-8.420888672E0,9.669891357E-2,9.698931639E0
1.310872217E1,4.511019287E0,-8.319399719E0,-1.528321838E-1,9.464938688E0
1.311864317E1,4.308191071E0,-8.263715515E0,-3.600013733E-1,9.326258918E0
1.312856417E1,4.304897919E0,-8.368347931E0,-4.231700134E-1,9.420215817E0
1.313848517E1,4.367916870E0,-8.497678986E0,-5.096900940E-1,9.568125727E0
1.314840617E1,4.487218781E0,-8.819809113E0,-5.557942200E-1,9.911259879E0
1.315832817E1,4.811893616E0,-9.134454803E0,-3.465293884E-1,1.033018235E1
1.316824917E1,5.111869812E0,-9.336534576E0,2.029779053E-1,1.064628061E1
1.317817017E1,4.822371826E0,-9.030121765E0,6.098318481E-1,1.025525543E1
1.318809117E1,4.476441193E0,-8.627309418E0,8.294252014E-1,9.754841860E0
1.319801217E1,4.436923370E0,-8.377329254E0,8.473878479E-1,9.517562744E0
1.320793317E1,4.687502289E0,-8.065377960E0,6.469546509E-1,9.351018643E0
1.321785417E1,4.937781830E0,-8.040230255E0,4.251159668E-1,9.444983618E0
1.322777517E1,5.024301910E0,-8.075107727E0,2.468367004E-1,9.513774374E0
1.323769617E1,4.971012726E0,-8.096213837E0,1.082249451E-1,9.501124073E0
1.324761717E1,5.037624207E0,-8.224646759E0,6.286926270E-2,9.645020710E0
1.325753817E1,4.974455566E0,-8.283175049E0,1.040336609E-1,9.662661128E0
1.326745917E1,4.819677429E0,-8.279133453E0,1.884580994E-1,9.581693886E0
1.327738017E1,4.808450775E0,-8.193810883E0,2.547702026E-1,9.503927793E0
1.328730117E1,4.852159882E0,-8.249046021E0,3.650907898E-1,9.577239010E0
1.329722217E1,4.963977356E0,-8.297395477E0,4.087998962E-1,9.677549290E0
1.330714317E1,5.031187592E0,-8.194259949E0,4.266128540E-1,9.625006141E0
1.331706417E1,5.006339264E0,-8.056097260E0,4.962181091E-1,9.497913892E0
1.332698517E1,4.975802765E0,-8.002808075E0,5.047503662E-1,9.437071748E0
1.333690617E1,5.253026276E0,-8.218359833E0,3.960763550E-1,9.761792862E0
1.334682717E1,5.210065613E0,-8.024213562E0,2.484832764E-1,9.570503169E0
1.335674817E1,5.084027710E0,-7.888745270E0,1.833686829E-1,9.386866557E0
1.336666917E1,5.040917358E0,-7.800578613E0,2.001338196E-1,9.289775458E0
1.337659017E1,5.209616547E0,-7.817942505E0,1.806742859E-1,9.396434045E0
1.338651117E1,5.469326477E0,-7.760761414E0,1.362167358E-1,9.495341217E0
1.339643217E1,5.699248352E0,-7.695646820E0,2.002835083E-1,9.578336246E0
1.340635317E1,5.931116180E0,-7.672295380E0,3.471281433E-1,9.703749455E0
1.341627417E1,6.076912994E0,-7.617808685E0,4.948709106E-1,9.757293576E0
1.342619517E1,6.110592957E0,-7.655679932E0,5.679190063E-1,9.811794611E0
1.343611617E1,6.116879883E0,-7.678282928E0,5.222639465E-1,9.830819287E0
1.344603717E1,6.089337158E0,-7.750283203E0,3.969744873E-1,9.864304613E0
1.345595817E1,6.135890350E0,-7.899822235E0,2.182461548E-1,1.000519731E1
1.346587917E1,6.295308838E0,-7.972570953E0,1.621128845E-1,1.015967921E1
1.347580017E1,6.383774872E0,-7.909851379E0,2.797682190E-1,1.016841191E1
1.348572117E1,6.737489319E0,-7.668104095E0,5.035528564E-1,1.021993876E1
1.349564217E1,6.866071930E0,-7.874824219E0,8.557704163E-1,1.048275456E1
1.350556317E1,6.896159363E0,-8.042475586E0,1.209185486E0,1.066304633E1
1.351548417E1,7.053033142E0,-8.116870880E0,1.445244598E0,1.084977425E1
1.352540517E1,7.072792053E0,-8.149503021E0,1.509760437E0,1.089578650E1
1.353532617E1,6.989265747E0,-8.381520538E0,1.400637360E0,1.100279543E1
1.354524717E1,6.826853485E0,-9.048683167E0,1.093775482E0,1.138775396E1
1.355516817E1,6.552623749E0,-9.987530823E0,6.965016174E-1,1.196548221E1
1.356508917E1,6.173911285E0,-1.084015778E1,5.897735596E-1,1.248895648E1
1.357501017E1,5.679788818E0,-1.123234222E1,8.397537231E-1,1.261470171E1
1.358493117E1,5.102289734E0,-1.095257401E1,1.199605408E0,1.214212877E1
1.359485217E1,4.800217896E0,-1.070334229E1,1.283730469E0,1.180049117E1
1.360477317E1,4.857099609E0,-1.094134735E1,8.909472656E-1,1.200409453E1
1.361469417E1,5.100792847E0,-1.146331192E1,3.608995056E-1,1.255212557E1
1.362461517E1,5.806425476E0,-1.197764236E1,1.225950623E-1,1.331140575E1
1.363453617E1,6.689439240E0,-1.158964920E1,6.780899048E-2,1.338182215E1
1.364445717E1,7.171586609E0,-9.959688721E0,-7.664062500E-2,1.227326068E1
1.365437817E1,7.473957825E0,-8.619076538E0,-4.122427368E-1,1.141571154E1
1.366429917E1,7.711813202E0,-8.049061890E0,-8.777746582E-1,1.118167915E1
1.367422017E1,8.033643951E0,-7.830516357E0,-1.129102020E0,1.127525135E1
1.368414117E1,8.250991974E0,-7.626640320E0,-1.201701050E0,1.129993790E1
1.369406217E1,8.322543182E0,-7.495363312E0,-1.107247467E0,1.125482977E1
1.370398317E1,8.466094666E0,-7.310647430E0,-8.551716614E-1,1.121836188E1
1.371390417E1,8.735983429E0,-6.956633606E0,-5.297483826E-1,1.118001748E1
1.372382517E1,8.940757599E0,-6.548881531E0,1.541793823E-1,1.108371630E1
1.373374617E1,8.805438995E0,-6.177803192E0,1.062191162E0,1.080875840E1
1.374366717E1,8.443192291E0,-5.953719177E0,1.600172424E0,1.045441629E1
1.375358817E1,7.960595856E0,-5.951024780E0,1.590891724E0,1.006562064E1
1.376350954E1,7.411687317E0,-6.105204163E0,1.283730469E0,9.687857899E0
1.377343054E1,6.947652283E0,-6.337820435E0,7.562274170E-1,9.434496277E0
1.378335154E1,6.783743134E0,-6.631360016E0,1.245410156E-1,9.487339829E0
1.379327254E1,6.584806824E0,-7.165748749E0,-3.920347595E-1,9.739677987E0
1.380319354E1,6.555767212E0,-7.670948181E0,-2.198927307E-1,1.009306111E1
1.381311454E1,6.238427124E0,-8.075257416E0,5.215155029E-1,1.021761879E1
1.382303554E1,5.597909088E0,-8.451874237E0,1.480271759E0,1.024509486E1
1.383295654E1,5.052892456E0,-8.662635956E0,2.304757233E0,1.029003838E1
1.384287754E1,4.920567627E0,-8.472980347E0,2.684068451E0,1.015911439E1
1.385279854E1,5.170996857E0,-8.097111969E0,2.791095886E0,1.000463128E1
1.386271954E1,5.698200531E0,-7.313641205E0,2.534828796E0,9.611669678E0
1.387264154E1,6.121071167E0,-6.552923126E0,2.143542480E0,9.219711931E0
1.388256254E1,6.304140472E0,-6.001769257E0,1.805395660E0,8.889481132E0
1.389248354E1,6.354286194E0,-5.638774109E0,1.533710632E0,8.632786039E0
1.390240454E1,6.325545959E0,-5.580096130E0,1.380429382E0,8.547256273E0
1.391232554E1,6.360872498E0,-5.591023407E0,1.353186035E0,8.576208609E0
1.392224654E1,6.377188568E0,-5.723647614E0,1.489552460E0,8.697553827E0
1.393216754E1,6.198160858E0,-5.761967926E0,1.739832001E0,8.639704150E0
1.394208854E1,5.927224274E0,-5.692212982E0,1.783541107E0,8.409179217E0
1.395200954E1,5.507197723E0,-5.582640839E0,1.692380676E0,8.022422194E0
1.396193054E1,4.928052063E0,-5.401816864E0,1.607507172E0,7.486614847E0
1.397185154E1,4.478087769E0,-5.289400635E0,1.581910400E0,7.108689728E0
1.398177254E1,4.303401031E0,-5.273683319E0,1.779649200E0,7.035491985E0
1.399169354E1,4.254452820E0,-5.359155579E0,2.150278473E0,7.172490141E0
1.400161454E1,4.110901337E0,-5.507048035E0,2.508483582E0,7.315707603E0
1.401153554E1,4.030368805E0,-5.664670258E0,2.746488647E0,7.474995767E0
1.402145654E1,3.857029266E0,-5.795049133E0,2.996917877E0,7.578969982E0
1.403137754E1,3.684587860E0,-5.784271545E0,3.144211578E0,7.544537856E0
1.404129854E1,3.520828400E0,-5.690117340E0,3.279230804E0,7.451645633E0
1.405121954E1,3.336561584E0,-5.646707611E0,3.562890930E0,7.464056661E0
1.406114054E1,3.229234772E0,-5.673801270E0,3.945046234E0,7.627802295E0
1.407106154E1,3.134781189E0,-5.823639679E0,4.356241150E0,7.919499300E0
1.408098254E1,3.016676788E0,-6.181096344E0,4.637805634E0,8.295512760E0
1.409090354E1,2.778821411E0,-6.639293518E0,4.642595673E0,8.564797805E0
1.410082454E1,2.425556030E0,-7.135811005E0,4.693489838E0,8.878736825E0
1.411074554E1,2.177222443E0,-7.763605499E0,5.192552032E0,9.590436097E0
1.412066654E1,2.062560883E0,-8.524173889E0,6.070177002E0,1.066596206E1
1.413058754E1,1.996997223E0,-9.368418274E0,6.940916290E0,1.182926785E1
1.414050854E1,1.952988739E0,-1.013736923E1,7.233857117E0,1.260591563E1
1.415042954E1,1.941911774E0,-1.073851913E1,7.107220459E0,1.302303333E1
1.416035054E1,2.314786377E0,-1.090063202E1,6.784491577E0,1.304650683E1
1.417027154E1,2.983745270E0,-1.055155792E1,6.624624023E0,1.281107934E1
1.418019254E1,3.812272339E0,-9.804162140E0,6.810238037E0,1.253133504E1
1.419011354E1,4.832400970E0,-8.916208649E0,7.207511902E0,1.244182879E1
1.420003454E1,5.939199371E0,-8.063282318E0,7.462132416E0,1.248895637E1
1.420995554E1,6.957531738E0,-7.342231750E0,7.258256378E0,1.244981528E1
1.421987654E1,7.996371460E0,-6.745123444E0,6.693630524E0,1.241947408E1
1.422979754E1,8.925788727E0,-6.505920868E0,5.906417542E0,1.252527361E1
1.423971854E1,9.519753571E0,-6.586752777E0,3.403921509E0,1.206638727E1
1.424963954E1,9.917177124E0,-6.246959381E0,1.845661926E-1,1.172215715E1
1.425956054E1,1.008273285E1,-5.108426971E0,-1.382225647E0,1.138718910E1
1.426948154E1,9.954748993E0,-3.639082489E0,-4.933740234E-1,1.061053094E1
1.427940254E1,9.897418213E0,-2.734363861E0,2.566113739E0,1.058397717E1
1.428932354E1,9.225914612E0,-3.622467041E0,6.323749695E0,1.175710756E1
1.429924454E1,7.180717621E0,-6.475084991E0,7.594008179E0,1.229464889E1
1.430916554E1,5.291196899E0,-9.304650879E0,4.830005951E0,1.174317888E1
1.431908654E1,4.207001495E0,-1.091919342E1,-6.408174133E-1,1.171914218E1
1.432900754E1,3.833827515E0,-1.102337677E1,-4.221221924E0,1.241095417E1
1.433892854E1,4.505331116E0,-9.880204010E0,-4.135450287E0,1.161974134E1
1.434884954E1,5.136119385E0,-9.016799469E0,-1.973945160E0,1.056308925E1
1.435877054E1,5.488187256E0,-7.702532501E0,9.373507690E-1,9.504095578E0
1.436869154E1,5.542973328E0,-6.921456757E0,3.237916718E0,9.440085890E0
1.437861254E1,5.466482391E0,-7.213050385E0,3.331172791E0,9.644026013E0
1.438853354E1,5.432353363E0,-7.893535309E0,1.753453674E0,9.741301890E0
1.439845454E1,5.450166321E0,-8.304131470E0,4.101470947E-1,9.941384865E0
1.440837554E1,5.579647064E0,-8.512198792E0,-1.297801208E-1,1.017874415E1
1.441829654E1,5.554499359E0,-8.486003265E0,-1.651066589E-1,1.014356815E1
1.442821754E1,5.344186707E0,-8.266709290E0,4.326004028E-2,9.843814579E0
1.443813854E1,5.204976196E0,-7.970325623E0,5.054988098E-1,9.532753893E0
1.444805954E1,5.011129303E0,-7.652835846E0,1.039288788E0,9.206380101E0
1.445798054E1,5.120851135E0,-7.461982727E0,1.358125763E0,9.151437491E0
1.446790154E1,5.566324768E0,-7.448510742E0,1.473685455E0,9.414671132E0
1.447782254E1,5.959107971E0,-7.462880859E0,1.438059540E0,9.657824485E0
1.448774354E1,6.269412689E0,-7.601193237E0,1.305734711E0,9.939246311E0
1.449766454E1,6.384373627E0,-7.780969391E0,1.154998169E0,1.013102818E1
1.450758554E1,6.333629150E0,-7.982450409E0,1.141077118E0,1.025360569E1
1.451750654E1,6.119723969E0,-8.148754578E0,1.251098328E0,1.026734969E1
1.452742754E1,5.838009796E0,-8.251141663E0,1.296903076E0,1.019046882E1
1.453734854E1,5.666765900E0,-8.264463959E0,1.312021637E0,1.010618628E1
1.454726954E1,5.604196014E0,-8.203690338E0,1.257534943E0,1.001443669E1
1.455719054E1,5.544170837E0,-8.046666870E0,1.074016571E0,9.830574225E0
1.456711154E1,5.532644806E0,-7.842192078E0,9.553134155E-1,9.644830680E0
1.457703254E1,5.625751190E0,-7.602390747E0,9.009764099E-1,9.500377888E0
1.458695354E1,5.532046051E0,-7.617658997E0,8.608598328E-1,9.453747498E0
1.459687454E1,5.556295624E0,-7.582931213E0,8.262817383E-1,9.436949102E0
1.460679554E1,5.602250061E0,-7.426356812E0,7.915539551E-1,9.336087987E0
1.461671654E1,5.489085388E0,-7.388934631E0,8.903485107E-1,9.247655587E0
1.462663754E1,5.402415619E0,-7.395970001E0,1.029109955E0,9.216590155E0
1.463655854E1,5.470074921E0,-7.546107788E0,1.125808868E0,9.387912867E0
1.464647954E1,5.509293365E0,-7.698341217E0,1.138083344E0,9.534778685E0
1.465640054E1,5.499264221E0,-7.784711609E0,9.553134155E-1,9.578949083E0
1.466632154E1,5.266198883E0,-7.922425232E0,6.682104492E-1,9.536465668E0
1.467624254E1,5.171445923E0,-8.113428040E0,4.433779907E-1,9.631622476E0
1.468616354E1,5.072052612E0,-8.295599213E0,1.962419128E-1,9.725286365E0
1.469608454E1,5.068609772E0,-8.686286774E0,7.065307617E-2,1.005720512E1
1.470600554E1,5.035378876E0,-9.259444885E0,3.076103210E-1,1.054452389E1
1.471592654E1,4.953499146E0,-9.728120270E0,9.282197571E-1,1.095605174E1
1.472584754E1,4.651427307E0,-9.774823151E0,1.754800873E0,1.096641554E1
1.473576854E1,4.398902435E0,-9.215735779E0,2.413281555E0,1.049304801E1
1.474568954E1,4.859494629E0,-8.331674194E0,2.353106689E0,9.928171736E0
1.475561054E1,5.360652466E0,-7.800129547E0,1.597627716E0,9.598491034E0
1.476553204E1,5.481151886E0,-7.548951874E0,7.336244202E-1,9.357772448E0
1.477545304E1,5.404810638E0,-7.636370087E0,1.276844788E-1,9.356411142E0
1.478537404E1,5.229076080E0,-7.862100677E0,-5.179229736E-2,9.442380323E0
1.479529604E1,4.889881439E0,-8.064330139E0,9.894424438E-2,9.431550829E0
1.480521704E1,4.618795166E0,-8.244705048E0,5.535488892E-1,9.466511843E0
1.481513804E1,4.624932404E0,-8.387508087E0,1.024918671E0,9.632795541E0
1.482505904E1,4.846920776E0,-8.444240112E0,1.244062958E0,9.815575619E0
1.483498004E1,4.856800232E0,-8.407716064E0,1.224304047E0,9.786578478E0
1.484490104E1,4.872218170E0,-8.432115326E0,1.046623535E0,9.794615847E0
1.485482204E1,4.839286652E0,-8.514743500E0,8.399034119E-1,9.829801112E0
1.486474304E1,4.731510773E0,-8.605155487E0,7.189549255E-1,9.846460853E0
1.487466404E1,4.524640961E0,-8.653504944E0,7.210505676E-1,9.791600357E0
1.488458504E1,4.429588623E0,-8.576415253E0,8.141569519E-1,9.687053499E0
1.489450604E1,4.528083801E0,-8.301736450E0,7.866142273E-1,9.489000629E0
1.490442704E1,4.716990967E0,-8.164920959E0,6.858737183E-1,9.454436039E0
1.491434804E1,4.865482178E0,-8.114475861E0,5.770500183E-1,9.478956801E0
1.492426904E1,4.881947937E0,-8.002209320E0,3.820056152E-1,9.381614890E0
1.493419004E1,4.978048096E0,-7.964038696E0,2.800675964E-1,9.396026450E0
1.494411104E1,4.930896149E0,-7.964188385E0,3.453318787E-1,9.373435206E0
1.495403204E1,4.861440582E0,-7.993227997E0,5.257067871E-1,9.370254317E0
1.496395304E1,4.836442566E0,-7.967631226E0,8.080197144E-1,9.355598319E0
1.497387404E1,4.755311279E0,-7.893684998E0,9.259744263E-1,9.261785834E0
1.498379504E1,4.842879181E0,-7.874225464E0,7.846682739E-1,9.277532523E0
1.499371604E1,4.921316071E0,-8.134683838E0,5.869294739E-1,9.525592854E0
1.500363704E1,5.163213043E0,-8.453371124E0,3.957769775E-1,9.913369342E0
1.501355804E1,5.389243011E0,-8.630153503E0,3.475772095E-1,1.018058445E1
1.502347904E1,5.470973053E0,-8.644373932E0,4.902305603E-1,1.024192720E1
1.503340004E1,5.589825897E0,-8.612639923E0,7.279362488E-1,1.029337705E1
1.504332104E1,5.579796753E0,-8.480614471E0,8.828640747E-1,1.018991671E1
1.505324204E1,5.599106598E0,-8.391399994E0,9.541159058E-1,1.013291299E1
1.506316304E1,5.551954651E0,-8.359965363E0,9.083111572E-1,1.007661900E1
1.507308404E1,5.624403992E0,-8.237370300E0,7.141648865E-1,9.999911060E0
1.508300504E1,5.535039825E0,-8.462502136E0,5.596861267E-1,1.012738154E1
1.509292604E1,5.226381683E0,-8.880283356E0,5.360353088E-1,1.031803430E1
1.510284704E1,4.899012451E0,-9.095685425E0,4.002676392E-1,1.033886021E1
1.511276804E1,4.713099060E0,-9.291777649E0,1.522334290E-1,1.041986610E1
1.512268904E1,4.787045288E0,-9.503437500E0,-1.276844788E-1,1.064177759E1
1.513261004E1,5.002597046E0,-9.698481903E0,-2.502795410E-1,1.091554709E1
1.514253104E1,5.237159271E0,-9.838440857E0,-1.170565796E-1,1.114614095E1
1.515245204E1,5.509143677E0,-1.002510269E1,2.525248718E-1,1.144190180E1
1.516237304E1,5.703739014E0,-1.010713211E1,8.102650452E-1,1.163371341E1
1.517229404E1,5.942342834E0,-1.023751099E1,1.364712067E0,1.191555742E1
1.518221504E1,6.255341949E0,-1.043405228E1,1.670825500E0,1.227967458E1
1.519213604E1,6.553521881E0,-1.066083069E1,1.809886322E0,1.264427335E1
1.520205704E1,6.843468933E0,-1.074765015E1,1.883533173E0,1.287993587E1
1.521197804E1,7.096742249E0,-1.066547104E1,1.884431305E0,1.294863330E1
1.522189904E1,7.286547546E0,-1.029289581E1,1.876797180E0,1.274989596E1
1.523182004E1,7.299271088E0,-9.552086334E0,1.929786987E0,1.217562276E1
1.524174104E1,7.166946259E0,-8.631949768E0,2.017504578E0,1.139938596E1
1.525166204E1,6.972500610E0,-7.799830170E0,1.955533447E0,1.064317746E1
1.526158304E1,6.666985931E0,-7.099586334E0,1.694775696E0,9.885600244E0
1.527150404E1,6.409970398E0,-6.533164215E0,1.429227905E0,9.263511622E0
1.528142504E1,6.249055023E0,-5.948330383E0,1.119671631E0,8.699826871E0
1.529134604E1,5.948031006E0,-5.611830139E0,9.499246216E-1,8.232500662E0
1.530126704E1,5.919141083E0,-5.411247253E0,1.087189178E0,8.093195185E0
1.531118804E1,6.010301514E0,-5.476960602E0,1.427281952E0,8.255783154E0
1.532110904E1,6.165678406E0,-5.721102905E0,1.831142120E0,8.608117687E0
1.533103004E1,6.391259308E0,-6.195466461E0,1.926194458E0,9.107262229E0
1.534095104E1,6.746021576E0,-6.989714813E0,1.700912933E0,9.861948341E0
1.535087204E1,7.121889954E0,-7.947722626E0,1.463207245E0,1.077165665E1
1.536079304E1,7.314838715E0,-8.880582733E0,1.103954315E0,1.155812832E1
1.537071404E1,7.238796844E0,-9.651928711E0,5.212161255E-1,1.207607444E1
1.538063504E1,7.022796021E0,-1.016431320E1,-7.065307617E-2,1.235467194E1
1.539055604E1,6.776707764E0,-1.033810181E1,-5.101391602E-1,1.237175651E1
1.540047704E1,6.505771179E0,-1.033435959E1,-3.844006348E-1,1.221768434E1
1.541039804E1,6.017187195E0,-1.019425095E1,2.659968567E-1,1.184061014E1
1.542031904E1,5.205574951E0,-9.903854828E0,7.985893250E-1,1.121704488E1
1.543024004E1,4.546645203E0,-9.572593689E0,1.132095795E0,1.065777526E1
1.544016104E1,4.127367096E0,-9.317823486E0,1.590292969E0,1.031436015E1
1.545008204E1,3.920646973E0,-9.125922546E0,2.243534546E0,1.018270015E1
1.546000304E1,4.118385773E0,-8.997639313E0,2.827320557E0,1.029137290E1
1.546992404E1,4.446503448E0,-8.725355530E0,3.010838928E0,1.024540741E1
1.547984504E1,4.660708008E0,-8.309071198E0,2.841540985E0,9.941690926E0
1.548976604E1,4.887636108E0,-7.882608032E0,2.539768524E0,9.616388110E0
1.549968704E1,5.141358490E0,-7.529791718E0,2.217039642E0,9.383314724E0
1.550960804E1,5.458698578E0,-7.172484741E0,1.955383759E0,9.223093471E0
1.551952904E1,5.680237885E0,-6.900350647E0,1.852697296E0,9.127564229E0
1.552945004E1,5.822891235E0,-6.658154297E0,1.827549591E0,9.031999695E0
1.553937104E1,5.809419250E0,-6.492598572E0,1.812730408E0,8.898830247E0
1.554929204E1,5.725144501E0,-6.404581604E0,1.774260406E0,8.771769780E0
1.555921304E1,5.666167145E0,-6.208339691E0,1.790127411E0,8.593805210E0
1.556913404E1,5.624703369E0,-6.112987976E0,1.893861694E0,8.520130404E0
1.557905504E1,5.675298157E0,-5.806126099E0,2.035167847E0,8.370305706E0
1.558897604E1,5.809868317E0,-5.579197998E0,2.062710571E0,8.314853881E0
1.559889704E1,5.910309448E0,-5.374872894E0,2.089654541E0,8.257582728E0
1.560881804E1,5.884413300E0,-5.185666351E0,2.197131042E0,8.145234202E0
1.561873904E1,5.742059326E0,-5.025798798E0,2.338437195E0,7.981114419E0
1.562866004E1,5.468428345E0,-4.898862762E0,2.492317200E0,7.753335408E0
1.563858104E1,5.167104950E0,-4.875361633E0,2.696342926E0,7.598578143E0
1.564850204E1,4.880301361E0,-5.027295685E0,2.865341492E0,7.569757271E0
1.565842304E1,4.621938629E0,-5.224585419E0,2.956352234E0,7.576188225E0
1.566834404E1,4.497996368E0,-5.345234528E0,2.930605774E0,7.575747731E0
1.567826504E1,4.415218506E0,-5.553301849E0,2.980152740E0,7.695104044E0
1.568818604E1,4.367916870E0,-5.813909912E0,3.154689789E0,7.926683664E0
1.569810704E1,4.227209473E0,-6.137237549E0,3.398832092E0,8.190668120E0
1.570802804E1,3.991150360E0,-6.384972382E0,3.482208710E0,8.295958715E0
1.571794904E1,3.803440704E0,-6.555168457E0,3.452420654E0,8.328001145E0
1.572787004E1,3.802542572E0,-6.587052155E0,3.481909332E0,8.364943437E0
1.573779104E1,3.899391174E0,-6.528972931E0,3.634292450E0,8.428571687E0
1.574771204E1,3.942202148E0,-6.444398804E0,3.826792145E0,8.468504699E0
1.575763304E1,3.864813080E0,-6.355184326E0,3.909570007E0,8.402968857E0
1.576755367E1,3.778442688E0,-6.277795258E0,3.964206390E0,8.330802767E0
1.577747467E1,3.827690277E0,-6.342011719E0,4.151017914E0,8.491364744E0
1.578739567E1,3.921694794E0,-6.560557251E0,4.505929871E0,8.872654929E0
1.579731667E1,3.992497559E0,-6.868616638E0,4.849615173E0,9.307883680E0
1.580723767E1,4.066443787E0,-7.167694702E0,5.148543549E0,9.716960074E0
1.581715867E1,4.007316742E0,-7.488327942E0,5.522915039E0,1.013095422E1
1.582707967E1,3.812721405E0,-7.837402039E0,6.008505249E0,1.058602147E1
1.583700067E1,3.557651825E0,-8.190817108E0,6.423592072E0,1.100040483E1
1.584692167E1,3.296594696E0,-8.592132568E0,6.610253906E0,1.133083119E1
1.585684267E1,3.135978699E0,-9.055868225E0,6.690636749E0,1.168793103E1
1.586676367E1,3.122656403E0,-9.459279327E0,6.668482819E0,1.198739386E1
1.587668467E1,3.350782013E0,-9.721533966E0,6.482120361E0,1.215540403E1
1.588660567E1,3.805236969E0,-9.776918793E0,6.314169617E0,1.224486453E1
1.589652667E1,4.354594574E0,-9.615404663E0,6.227799225E0,1.225577349E1
1.590644767E1,4.717589722E0,-9.336833954E0,6.170019379E0,1.214500968E1
1.591636867E1,4.803660736E0,-9.177265778E0,6.101012878E0,1.202163557E1
1.592628967E1,4.925058289E0,-9.233249359E0,6.019133148E0,1.207224324E1
1.593621067E1,5.339995422E0,-9.574389954E0,5.899980927E0,1.244966943E1
1.594613167E1,6.074218597E0,-1.004096970E1,5.640570374E0,1.302049301E1
1.595605267E1,7.087611237E0,-1.030352371E1,5.263205109E0,1.356827778E1
1.596597367E1,8.121960297E0,-1.023451721E1,4.734953613E0,1.389717120E1
1.597589467E1,8.869655457E0,-9.718989258E0,4.112248535E0,1.378550428E1
1.598581567E1,9.344767456E0,-8.953181763E0,3.385509796E0,1.337706317E1
1.599573667E1,9.464518433E0,-8.231682129E0,2.733615417E0,1.283784846E1
1.600565767E1,9.151968384E0,-7.695048065E0,2.798280945E0,1.228017371E1
1.601557867E1,7.907905426E0,-7.137307892E0,3.983815613E0,1.137307870E1
1.602549967E1,5.782924347E0,-6.386020203E0,5.224435730E0,1.007562389E1
1.603542067E1,3.938160553E0,-5.671256561E0,4.383185120E0,8.178298803E0
1.604534167E1,2.993774414E0,-4.870272217E0,1.927841034E0,6.033142445E0
1.605526267E1,2.843786316E0,-3.948788452E0,-3.511697388E-1,4.878869852E0
1.606518367E1,3.251688080E0,-3.453169098E0,-1.780397644E0,5.066326870E0
1.607510567E1,3.636837158E0,-3.536246338E0,-2.530787201E0,5.668906996E0
1.608502567E1,3.924089813E0,-4.061204681E0,-2.847229156E0,6.324442916E0
1.609494767E1,4.188739471E0,-5.017116852E0,-2.760260010E0,7.094789298E0
1.610486767E1,4.700824585E0,-6.446943512E0,-2.396666107E0,8.330956779E0
1.611478967E1,5.406906281E0,-7.903115387E0,-1.783092041E0,9.740291863E0
1.612471067E1,6.067632294E0,-9.344318390E0,-8.708889771E-1,1.117545952E1
1.613463167E1,6.470294952E0,-1.095287338E1,3.107537842E-1,1.272504303E1
1.614455267E1,6.309678955E0,-1.240739868E1,1.636397095E0,1.401546953E1
1.615447367E1,5.469925232E0,-1.327379700E1,2.764750671E0,1.462045194E1
1.616439467E1,4.303700409E0,-1.309432022E1,3.263214111E0,1.416444936E1
1.617431567E1,3.556753693E0,-1.155237671E1,2.818638611E0,1.241179391E1
1.618423667E1,3.506009216E0,-9.286538544E0,1.870210876E0,1.010096963E1
1.619415767E1,4.232897644E0,-7.474556580E0,9.942324829E-1,8.647249086E0
1.620407867E1,5.239853668E0,-6.477629700E0,2.947370911E-1,8.336823312E0
1.621399967E1,6.062093811E0,-6.034251709E0,-1.657054138E-1,8.555035555E0
1.622392067E1,6.618935852E0,-5.930218048E0,-1.999841309E-1,8.889195215E0
1.623384167E1,6.990014191E0,-5.936654663E0,2.242337036E-1,9.173573335E0
1.624376267E1,7.297474823E0,-6.483168182E0,8.888516235E-1,9.801768498E0
1.625368367E1,7.280559998E0,-7.265890503E0,1.643881531E0,1.041643246E1
1.626360467E1,6.885681152E0,-7.823331299E0,2.247127075E0,1.066145851E1
1.627352567E1,6.244264984E0,-8.101602631E0,2.283351746E0,1.048048212E1
1.628344667E1,5.560337219E0,-8.153245239E0,1.701960754E0,1.001446096E1
1.629336767E1,4.977748718E0,-8.118218079E0,8.213420105E-1,9.558140498E0
1.630328867E1,4.670737152E0,-8.123457184E0,-9.744735718E-2,9.371010519E0
1.631320967E1,4.450545044E0,-8.150401154E0,-8.460406494E-1,9.324815008E0
1.632313067E1,4.233197021E0,-8.083340607E0,-1.289867706E0,9.215427884E0
1.633305167E1,4.154610443E0,-7.931855621E0,-1.483415222E0,9.076102812E0
1.634297267E1,4.123774567E0,-7.718249817E0,-1.484912109E0,8.875914651E0
1.635289367E1,4.093836823E0,-7.542365570E0,-1.298549652E0,8.679459057E0
1.636281467E1,4.278552704E0,-7.601941681E0,-9.848020935E-1,8.778688155E0
1.637273567E1,4.664150848E0,-7.913294220E0,-7.026388550E-1,9.212395449E0
1.638265667E1,5.062472534E0,-8.081843719E0,-4.941224670E-1,9.549292282E0
1.639257767E1,5.452411652E0,-8.007149048E0,-3.594026184E-1,9.693936194E0
1.640249867E1,5.664071503E0,-8.165220337E0,-1.417552185E-1,9.938441713E0
1.641241967E1,5.891598358E0,-8.104147339E0,1.311273193E-1,1.002024599E1
1.642234067E1,6.192622375E0,-7.826923828E0,4.616400146E-1,9.991117055E0
1.643226167E1,6.495143280E0,-7.442822571E0,7.379653931E-1,9.905911718E0
1.644218267E1,6.748715973E0,-7.205565948E0,9.463320923E-1,9.917706002E0
1.645210367E1,6.908433838E0,-7.024741974E0,1.044527893E0,9.907799777E0
1.646202467E1,7.000043335E0,-6.953340454E0,1.006806335E0,9.917822803E0
1.647194567E1,7.001839600E0,-6.827003174E0,9.530680847E-1,9.825582369E0
1.648186667E1,6.858737183E0,-6.961872711E0,8.801696777E-1,9.812474002E0
1.649178767E1,6.521488495E0,-7.276368713E0,7.569758606E-1,9.800426843E0
1.650170867E1,6.021228790E0,-7.625143433E0,4.796026611E-1,9.727693829E0
1.651162967E1,5.589676208E0,-7.381001129E0,2.100132751E-1,9.261088670E0
1.652155067E1,5.432203674E0,-7.517068176E0,6.137237549E-3,9.274437363E0
1.653147167E1,5.525310059E0,-7.564220123E0,-9.624984741E-2,9.367803443E0
1.654139267E1,5.422623596E0,-7.918683014E0,-4.236190796E-2,9.597509149E0
1.655131367E1,5.224585419E0,-8.263715515E0,7.379653931E-2,9.777051337E0
1.656123467E1,5.013973389E0,-8.473878479E0,2.140548706E-1,9.848470191E0
1.657115567E1,4.724924469E0,-8.635691986E0,2.592608643E-1,9.847197749E0
1.658107667E1,4.464615784E0,-8.899144135E0,8.921447754E-2,9.956682161E0
1.659099767E1,4.353846130E0,-9.283245392E0,-2.374063110E-1,1.025626554E1
1.660091867E1,4.447102203E0,-9.605974274E0,-5.370831299E-1,1.059905270E1
1.661083967E1,4.709057465E0,-9.695787506E0,-6.625222778E-1,1.079918762E1
1.662076067E1,4.973856812E0,-9.540111237E0,-4.885839844E-1,1.076994375E1
1.663068167E1,5.110522614E0,-9.261839905E0,-1.787283325E-1,1.057974781E1
1.664060267E1,5.128335571E0,-9.028924255E0,1.044827271E-1,1.038422918E1
1.665052367E1,5.215155029E0,-8.805289307E0,3.740721130E-1,1.024064899E1
1.666044467E1,5.453459473E0,-8.870852966E0,4.602928162E-1,1.042324911E1
1.667036567E1,5.489983521E0,-9.313781891E0,5.444178772E-1,1.082510245E1
1.668028667E1,5.416037292E0,-9.732760620E0,5.724096680E-1,1.115292527E1
1.669020767E1,5.371130676E0,-9.948761444E0,6.725514221E-1,1.132604187E1
1.670012867E1,5.183720398E0,-1.018242554E1,8.175997925E-1,1.145518295E1
1.671004967E1,5.121300201E0,-1.034498749E1,1.079405365E0,1.159360159E1
1.671997067E1,5.104984131E0,-1.054676788E1,1.267115021E0,1.178561650E1
1.672989167E1,5.091212769E0,-1.066666855E1,1.392404480E0,1.190113674E1
1.673981267E1,5.257067871E0,-1.052551208E1,1.684297485E0,1.188528608E1
1.674973367E1,5.353467407E0,-1.020951920E1,2.015408936E0,1.170281029E1
1.675965467E1,5.660628662E0,-9.583221588E0,2.349065094E0,1.137536635E1
1.676957558E1,5.996979218E0,-9.055718536E0,2.638712769E0,1.117732540E1
1.677949658E1,6.260730743E0,-8.986113281E0,2.720742188E0,1.128492000E1
1.678941758E1,6.347550201E0,-9.615704041E0,2.353106689E0,1.175968830E1
1.679933858E1,6.303841095E0,-1.029199768E1,1.640588379E0,1.218011326E1
1.680925958E1,6.369255066E0,-1.060754150E1,1.008452911E0,1.241387627E1
1.681918058E1,6.727011108E0,-1.005129822E1,6.902146912E-1,1.211435804E1
1.682910158E1,7.065756683E0,-8.923842773E0,4.885839844E-1,1.139291893E1
1.683902258E1,7.286846924E0,-7.940836945E0,3.480262756E-1,1.078314202E1
1.684894358E1,7.701634369E0,-7.445666656E0,3.143463135E-1,1.071689962E1
1.685886458E1,8.340056763E0,-7.187902679E0,-6.780899048E-2,1.101031742E1
1.686878558E1,8.939410400E0,-6.993906097E0,-5.090913391E-1,1.136164402E1
1.687870658E1,9.593550110E0,-6.718329163E0,-4.809498596E-1,1.172192233E1
1.688862758E1,1.033840118E1,-6.326743469E0,-1.109193420E-1,1.212116022E1
1.689854858E1,1.093985046E1,-5.997877350E0,3.312611389E-1,1.248056869E1
1.690846958E1,1.128144012E1,-6.039041748E0,7.753875732E-1,1.281959993E1
1.691839058E1,1.102487366E1,-6.104755096E0,7.117698669E-1,1.262230131E1
1.692831158E1,1.021984772E1,-6.143823853E0,2.947370911E-1,1.192806476E1
1.693823258E1,9.279652863E0,-6.082750854E0,-2.305206299E-1,1.109797076E1
1.694815358E1,8.270152130E0,-5.985453186E0,-8.135581970E-1,1.024123738E1
1.695807458E1,7.278015289E0,-6.189628601E0,-6.897656250E-1,9.578976218E0
1.696799558E1,6.622378693E0,-6.519392853E0,6.227050781E-2,9.293129738E0
1.697791658E1,6.265670471E0,-6.950196991E0,1.065334625E0,9.418004169E0
1.698783758E1,5.947282562E0,-7.637417908E0,2.094145203E0,9.903825842E0
1.699775858E1,5.344037018E0,-8.299640808E0,3.044069824E0,1.033001115E1
1.700767958E1,4.742438049E0,-8.733289032E0,3.596720581E0,1.056870167E1
1.701760058E1,4.313130798E0,-9.019643555E0,3.358266449E0,1.054680144E1
1.702752158E1,3.877686310E0,-9.183702393E0,2.716251526E0,1.033222450E1
1.703744258E1,3.624862061E0,-8.657845917E0,1.982627106E0,9.593160643E0
1.704736358E1,3.975882111E0,-7.677684174E0,1.274150391E0,8.739446896E0
1.705728458E1,4.776118011E0,-6.572831726E0,1.106648712E0,8.199883629E0
1.706720558E1,5.505551147E0,-5.565426636E0,1.279838562E0,7.932405299E0
1.707712658E1,5.906866608E0,-4.714446259E0,1.405427399E0,7.687151801E0
1.708704758E1,6.161786499E0,-4.013004913E0,1.404379578E0,7.486260969E0
1.709696858E1,6.396648102E0,-3.500770111E0,1.335971832E0,7.413320379E0
1.710688958E1,6.717880096E0,-3.001258850E0,1.140628052E0,7.445703461E0
1.711681058E1,7.003935242E0,-2.706222382E0,1.006806335E0,7.575777679E0
1.712673158E1,7.111112366E0,-2.664758606E0,9.611512756E-1,7.654584854E0
1.713665258E1,6.744524689E0,-2.744243317E0,1.052760773E0,7.357159092E0
1.714657358E1,6.046077118E0,-2.947969666E0,1.401535492E0,6.870944287E0
1.715649458E1,5.281018066E0,-3.350632324E0,1.893861694E0,6.534722711E0
1.716641558E1,4.657564545E0,-3.893852692E0,2.385289764E0,6.522622443E0
1.717633658E1,4.184548187E0,-4.723577271E0,3.022814026E0,6.997144446E0
1.718625758E1,3.939807129E0,-5.244494019E0,3.471580811E0,7.421500593E0
1.719617858E1,3.613485718E0,-5.858367462E0,3.783083038E0,7.854264169E0
1.720609958E1,3.443439331E0,-6.516249390E0,4.177213440E0,8.471593277E0
1.721602058E1,3.381468201E0,-7.088060303E0,4.536616058E0,9.069498956E0
1.722594158E1,3.376977539E0,-7.623646545E0,4.819976807E0,9.630998929E0
1.723586258E1,3.325035553E0,-8.098159790E0,5.012775879E0,1.008781321E1
1.724578358E1,3.269950104E0,-8.485105133E0,4.984933777E0,1.037010837E1
1.725570458E1,3.282224579E0,-8.667725372E0,4.737797699E0,1.040909162E1
1.726562558E1,3.481909332E0,-8.627010040E0,4.635859680E0,1.039423830E1
1.727554658E1,3.634142761E0,-8.469387817E0,4.695286102E0,1.034327004E1
1.728546758E1,3.572620697E0,-8.221203918E0,4.705015869E0,1.012368445E1
1.729538858E1,3.570075989E0,-7.990832977E0,4.799319763E0,9.981599292E0
1.730530958E1,3.729494476E0,-7.863148499E0,4.960684204E0,1.001731606E1
1.731523058E1,4.028273163E0,-7.870782623E0,5.235662384E0,1.027561990E1
1.732515158E1,4.315974884E0,-7.995623016E0,5.723048859E0,1.073829199E1
1.733507258E1,4.609963531E0,-8.167615356E0,6.395600281E0,1.135189003E1
1.734499358E1,4.939727783E0,-8.332572327E0,6.993756409E0,1.194760649E1
1.735491458E1,5.213658142E0,-8.448730774E0,7.444169769E0,1.240882535E1
1.736483558E1,5.314248962E0,-8.399632874E0,7.672295380E0,1.255624111E1
1.737475658E1,5.292544098E0,-8.167315979E0,7.567662964E0,1.232824384E1
1.738467758E1,5.248535614E0,-7.852221222E0,7.051985321E0,1.178706924E1
1.739459858E1,5.237458649E0,-7.468419342E0,6.323001251E0,1.109903624E1
1.740451958E1,5.252876587E0,-7.024442596E0,5.631589050E0,1.042354553E1
1.741444058E1,5.342091064E0,-6.527775421E0,5.090314636E0,9.851958789E0
1.742436158E1,5.568420410E0,-6.026318207E0,4.734055481E0,9.472861146E0
1.743428258E1,6.006559296E0,-5.726192322E0,4.516557770E0,9.448138820E0
1.744420358E1,6.581663361E0,-5.692961426E0,4.398153992E0,9.750480035E0
1.745412458E1,7.172933807E0,-5.794600067E0,4.273313599E0,1.016314806E1
1.746404558E1,7.803273010E0,-6.021228790E0,4.003724213E0,1.063842438E1
1.747396658E1,8.274792480E0,-6.354884949E0,3.480861511E0,1.099877949E1
1.748388758E1,8.389603729E0,-6.863377533E0,2.862946472E0,1.121105991E1
1.749380858E1,8.170609131E0,-7.627688141E0,2.306553497E0,1.141317962E1
1.750372958E1,8.119265900E0,-8.574768677E0,1.995200958E0,1.197622493E1
1.751365058E1,8.558751984E0,-9.827214203E0,2.331701202E0,1.323870103E1
1.752357158E1,9.180109863E0,-1.118638779E1,3.724704437E0,1.494266081E1
1.753349258E1,9.223369904E0,-1.210667404E1,6.150410156E0,1.641553087E1
1.754341358E1,7.993227997E0,-1.192150909E1,7.952512665E0,1.640903808E1
1.755333458E1,5.749992828E0,-1.002570145E1,6.584657135E0,1.330168473E1
1.756325558E1,4.340224457E0,-7.884104919E0,3.486699371E0,9.651618062E0
1.757317658E1,4.128265228E0,-5.984105988E0,3.995191956E-1,7.280914356E0
1.758309758E1,4.288282471E0,-4.393363953E0,-2.104922791E0,6.490124292E0
1.759301858E1,4.458328857E0,-3.485651550E0,-3.711232452E0,6.767548245E0
1.760293958E1,4.589007111E0,-3.316652985E0,-4.360881500E0,7.146779746E0
1.761286058E1,4.763693848E0,-3.664978638E0,-4.135599976E0,7.295754563E0
1.762278158E1,4.979694672E0,-4.406087494E0,-3.435056763E0,7.484021712E0
1.763270258E1,5.389392700E0,-5.519472198E0,-2.616409149E0,8.145902274E0
1.764262358E1,5.842650146E0,-6.740333405E0,-1.771266632E0,9.094286152E0
1.765254458E1,6.016289062E0,-7.920479279E0,-7.580236816E-1,9.975185511E0
1.766246558E1,5.920338593E0,-9.097631378E0,3.984713745E-1,1.086167967E1
1.767238658E1,5.650599518E0,-1.030322433E1,1.650467834E0,1.186632844E1
1.768230758E1,5.200934601E0,-1.113639175E1,2.692600708E0,1.258248944E1
1.769222858E1,4.722080383E0,-1.127260849E1,2.860850830E0,1.255206010E1
1.770214958E1,4.359234924E0,-1.070947952E1,2.218686218E0,1.177363365E1
1.771207058E1,4.335284729E0,-9.709409180E0,1.221609650E0,1.070325420E1
1.772199158E1,4.442162476E0,-8.744964752E0,4.267625427E-1,9.817807405E0
1.773191258E1,4.998106384E0,-8.027806091E0,-6.990463257E-2,9.456829528E0
1.774183358E1,5.718707886E0,-7.641758881E0,-2.427951050E-1,9.547724762E0
1.775175458E1,6.169121246E0,-7.298672333E0,-3.427871704E-2,9.556665203E0
1.776167558E1,6.485862579E0,-7.059469757E0,5.655239868E-1,9.603246536E0
1.777159671E1,6.542594604E0,-6.959926758E0,1.457070007E0,9.662772772E0
1.778151771E1,6.423592072E0,-7.000342712E0,2.178270264E0,9.747419891E0
1.779143871E1,6.530918884E0,-7.106771393E0,2.318977661E0,9.926568314E0
1.780135971E1,6.715485077E0,-7.223528595E0,1.800755310E0,1.002595755E1
1.781128071E1,6.637946320E0,-7.355254669E0,9.957293701E-1,9.957589044E0
1.782120171E1,6.432872772E0,-7.545509033E0,2.323168945E-1,9.918191862E0
1.783112271E1,6.251899109E0,-7.693401489E0,-4.104464722E-1,9.921851402E0
1.784104371E1,5.933062134E0,-7.669002228E0,-8.542735291E-1,9.733684026E0
1.785096471E1,5.609135742E0,-7.560777283E0,-1.065334625E0,9.474317641E0
1.786088571E1,5.290747833E0,-7.422165527E0,-1.086291046E0,9.179356295E0
1.787080671E1,4.975054321E0,-7.319329376E0,-9.948312378E-1,8.905809183E0
1.788072771E1,4.630919952E0,-7.330705719E0,-8.539741516E-1,8.712860483E0
1.789064871E1,4.340224457E0,-7.492668915E0,-7.003935242E-1,8.687242767E0
1.790056971E1,4.200265503E0,-7.845485229E0,-4.923262024E-1,8.912701828E0
1.791049071E1,4.259392548E0,-8.276439056E0,-3.183879089E-1,9.313605059E0
1.792041171E1,4.363725586E0,-8.538394318E0,-1.609153748E-1,9.590212316E0
1.793033271E1,4.508624268E0,-8.578361206E0,1.571731567E-2,9.691038169E0
1.794025371E1,4.965474243E0,-8.480614471E0,2.019300842E-1,9.829421755E0
1.795017471E1,5.480104065E0,-8.272547150E0,4.300556946E-1,9.932347397E0
1.796009571E1,5.948330383E0,-7.947572937E0,7.113208008E-1,9.952513613E0
1.797001671E1,6.375991058E0,-7.668553162E0,1.010398865E0,1.002401494E1
1.797993771E1,6.677763519E0,-7.445067902E0,1.288370819E0,1.008372258E1
1.798985871E1,6.807094574E0,-7.304959259E0,1.483714600E0,1.009457158E1
1.799977971E1,6.698719940E0,-7.304360504E0,1.499431915E0,1.002371325E1
1.800970071E1,6.516548767E0,-7.371870117E0,1.365909576E0,9.933558568E0
1.801962171E1,6.231840820E0,-7.558831329E0,1.096769257E0,9.857721536E0
1.802954271E1,5.870941315E0,-7.785609741E0,8.496331787E-1,9.788030829E0
1.803946371E1,5.475164337E0,-8.064928894E0,6.846762085E-1,9.771861854E0
1.804938471E1,5.137915649E0,-8.328530731E0,5.785469055E-1,9.802923946E0
1.805930571E1,4.857249298E0,-8.557704163E0,4.429289246E-1,9.850043518E0
1.806922671E1,4.690945129E0,-8.736731873E0,2.939886475E-1,9.920780178E0
1.807914771E1,4.633015594E0,-8.768465881E0,1.745370483E-1,9.918734324E0
1.808906871E1,4.648732910E0,-8.657845917E0,1.010398865E-1,9.827472851E0
1.809898971E1,4.762795715E0,-8.585246887E0,5.822891235E-2,9.818048571E0
1.810891071E1,4.917873230E0,-8.488997040E0,-2.110610962E-2,9.810657130E0
1.811883171E1,5.226531372E0,-8.538394318E0,-1.386117554E-1,1.001199385E1
1.812875271E1,5.611530762E0,-8.462951202E0,-3.023712158E-1,1.015885077E1
1.813867371E1,5.813011780E0,-8.430768127E0,-3.905378723E-1,1.024799868E1
1.814859471E1,5.891748047E0,-8.303682404E0,-3.381468201E-1,1.018715759E1
1.815851571E1,5.892795868E0,-8.053851929E0,-2.239343262E-1,9.981969776E0
1.816843671E1,5.820645905E0,-7.823630676E0,-1.332229614E-1,9.752274815E0
1.817835771E1,5.792654114E0,-7.766449585E0,-5.179229736E-2,9.688924774E0
1.818827871E1,5.815406799E0,-8.031248932E0,-2.200424194E-2,9.915664367E0
1.819819971E1,5.873785400E0,-8.386609955E0,9.774673462E-2,1.023944021E1
1.820812071E1,5.842201080E0,-8.688382416E0,3.573069763E-1,1.047601884E1
1.821804171E1,5.750890961E0,-8.934320984E0,7.146139526E-1,1.064920238E1
1.822796271E1,5.697003021E0,-9.200467529E0,1.024619293E0,1.086987998E1
1.823788371E1,5.741161194E0,-9.537267151E0,1.243314514E0,1.120117081E1
1.824780471E1,5.777984619E0,-9.739945679E0,1.473685455E0,1.142030634E1
1.825772571E1,5.883964233E0,-9.757010193E0,1.645528107E0,1.151208260E1
1.826764671E1,5.883066101E0,-9.462273102E0,1.766326904E0,1.128117856E1
1.827756771E1,5.849835205E0,-8.969198456E0,1.802850952E0,1.085897621E1
1.828748871E1,5.836961975E0,-8.876092072E0,1.643432465E0,1.074969794E1
1.829740971E1,5.992189178E0,-9.489217072E0,1.316362610E0,1.129975143E1
1.830733071E1,6.144272919E0,-1.036699173E1,9.852511597E-1,1.209120867E1
1.831725171E1,6.343059540E0,-1.099358871E1,1.009800110E0,1.273236402E1
1.832717271E1,6.652615814E0,-1.115764755E1,1.335522766E0,1.305886738E1
1.833709371E1,7.159461823E0,-1.060948746E1,1.849703522E0,1.293215066E1
1.834701471E1,7.506589966E0,-9.293124847E0,2.380050659E0,1.218095659E1
1.835693571E1,7.445966034E0,-7.864196320E0,2.567610626E0,1.113016704E1
1.836685671E1,7.424261169E0,-6.871011658E0,1.967209167E0,1.030535623E1
1.837677771E1,7.309000854E0,-6.284830627E0,9.786648560E-1,9.689085324E0
1.838669871E1,7.396568756E0,-5.853278046E0,2.547702026E-1,9.435836004E0
1.839661971E1,7.720046082E0,-5.546416168E0,-4.475692749E-2,9.505990059E0
1.840654071E1,8.190667419E0,-5.287005615E0,5.284011841E-2,9.748961649E0
1.841646171E1,8.602161713E0,-5.210963745E0,4.947212219E-1,1.006956198E1
1.842638271E1,8.976233826E0,-5.373974762E0,9.425898743E-1,1.050432550E1
1.843630371E1,9.441765747E0,-5.810018005E0,1.148112488E0,1.114546598E1
1.844622471E1,9.691296844E0,-6.415658569E0,1.106798401E0,1.167505512E1
1.845614571E1,9.573641510E0,-7.053182831E0,6.396199036E-1,1.190844715E1
1.846606671E1,9.236093445E0,-7.685767365E0,2.661465454E-1,1.201862205E1
1.847598771E1,8.669072571E0,-8.221802673E0,1.044827271E-1,1.194829591E1
1.848590871E1,8.457263031E0,-8.226742401E0,-2.005828857E-2,1.179851647E1
1.849582971E1,8.506061554E0,-8.108787689E0,-4.715194702E-2,1.175192513E1
1.850575071E1,7.853568420E0,-8.108188934E0,9.954299927E-2,1.128854169E1
1.851567171E1,6.789880371E0,-8.092770996E0,6.171665955E-1,1.058188605E1
1.852559271E1,5.995182953E0,-8.201295319E0,1.413061523E0,1.025671519E1
1.853551371E1,5.467230835E0,-8.388406219E0,2.254461823E0,1.026345799E1
1.854543471E1,5.068909149E0,-8.502768402E0,2.870879974E0,1.030693273E1
1.855535571E1,4.762496338E0,-8.508007507E0,3.054548035E0,1.021752547E1
1.856527671E1,4.502936096E0,-8.323291626E0,2.882106628E0,9.892429206E0
1.857519771E1,4.413272552E0,-7.838749237E0,2.672392731E0,9.384276591E0
1.858511871E1,4.646786957E0,-7.195686493E0,2.589165802E0,8.948425151E0
1.859503971E1,5.091811523E0,-6.425687714E0,2.586471405E0,8.596850674E0
1.860496071E1,5.531147919E0,-5.603746948E0,2.518363037E0,8.266663749E0
1.861488171E1,5.947581940E0,-4.922962646E0,2.432292023E0,8.094772179E0
1.862480271E1,6.245761871E0,-4.474495239E0,2.459984436E0,8.067352256E0
1.863472371E1,6.283483429E0,-4.113895111E0,2.313588867E0,7.858688850E0
1.864464471E1,6.239474945E0,-3.905079346E0,1.973196716E0,7.620642858E0
1.865456571E1,6.173911285E0,-3.824097748E0,1.536554718E0,7.423065711E0
1.866448671E1,6.029012604E0,-3.564088440E0,1.123264160E0,7.093196864E0
1.867440771E1,5.811664581E0,-3.624712372E0,1.084644470E0,6.934727003E0
1.868432871E1,5.401816864E0,-3.852388916E0,1.418749695E0,6.784790084E0
1.869424971E1,4.872068481E0,-4.079616394E0,1.726360016E0,6.584879658E0
1.870417071E1,4.466112671E0,-4.285438385E0,1.941313019E0,6.486897624E0
1.871409171E1,4.290677490E0,-4.560266876E0,1.966161346E0,6.562906197E0
1.872401271E1,4.389771423E0,-4.738995209E0,1.904489594E0,6.734630602E0
1.873393371E1,4.358037415E0,-5.091661835E0,2.009122009E0,6.996719345E0
1.874385471E1,4.277355194E0,-5.545218658E0,2.415377197E0,7.408054025E0
1.875377571E1,4.200714569E0,-6.082900543E0,3.090024261E0,8.012236382E0
1.876369654E1,4.099824371E0,-6.677015076E0,3.913012848E0,8.758011175E0
1.877361754E1,3.969146118E0,-7.360344086E0,4.825964355E0,9.654984098E0
1.878353854E1,3.727249146E0,-7.929610291E0,5.594017181E0,1.039539003E1
1.879345954E1,3.458258514E0,-8.400381317E0,6.086044006E0,1.093461887E1
1.880338054E1,3.365301819E0,-8.697962494E0,6.304439850E0,1.125725409E1
1.881330154E1,3.461701355E0,-9.008416901E0,6.524631958E0,1.164928210E1
1.882322254E1,3.520379333E0,-9.290430450E0,6.718628540E0,1.199354568E1
1.883314354E1,3.473975830E0,-9.419911194E0,6.492748260E0,1.195654695E1
1.884306454E1,3.362008667E0,-9.464069366E0,6.017486572E0,1.170819610E1
1.885298554E1,3.351081390E0,-9.395811310E0,5.605692902E0,1.144267493E1
1.886290654E1,3.601809998E0,-9.173373871E0,5.444178772E0,1.125890341E1
1.887282754E1,3.973187714E0,-8.790619812E0,5.502707062E0,1.110589944E1
1.888274854E1,4.314477997E0,-8.332572327E0,5.512137451E0,1.088256134E1
1.889266954E1,4.541106720E0,-7.907606049E0,5.428162079E0,1.061210758E1
1.890259054E1,4.820725250E0,-7.515571289E0,5.566624146E0,1.052190611E1
1.891251154E1,5.158423004E0,-7.105274506E0,5.885760498E0,1.057054541E1
1.892243254E1,5.457650757E0,-6.696474609E0,6.150260468E0,1.060445321E1
1.893235354E1,5.787864075E0,-6.306834869E0,6.243067474E0,1.059487745E1
1.894227454E1,6.150559845E0,-5.980363770E0,6.077811127E0,1.051351156E1
1.895219554E1,6.456373901E0,-5.721402283E0,5.694458313E0,1.033663695E1
1.896211654E1,6.786587219E0,-5.505551147E0,5.223387909E0,1.018099410E1
1.897203754E1,7.321125641E0,-5.442232819E0,4.760849762E0,1.028992076E1
1.898195854E1,7.825127563E0,-5.563780060E0,4.231550446E0,1.049258258E1
1.899187954E1,8.049211578E0,-5.726791077E0,3.595373383E0,1.051249984E1
1.900180054E1,8.121960297E0,-5.813311157E0,3.067720642E0,1.044852792E1
1.901172154E1,8.097860413E0,-5.917195129E0,2.698139191E0,1.038597596E1
1.902164254E1,8.084089050E0,-6.152056732E0,2.399959259E0,1.043839558E1
1.903156354E1,8.246201935E0,-6.659202118E0,2.191293182E0,1.082342760E1
1.904148454E1,8.381520538E0,-7.591164093E0,2.233056335E0,1.152658663E1
1.905140554E1,8.171656952E0,-8.851393433E0,2.792742462E0,1.236618589E1
1.906132654E1,7.714357910E0,-1.002749771E1,3.959715729E0,1.325674836E1
1.907124754E1,6.921007690E0,-1.089434509E1,5.060376892E0,1.386342370E1
1.908116854E1,5.891748047E0,-1.117082016E1,4.816983032E0,1.351677638E1
1.909108954E1,5.125042419E0,-1.059661423E1,3.441942444E0,1.226381917E1
1.910101054E1,4.741988983E0,-9.122629395E0,1.830842743E0,1.044321846E1
1.911093154E1,4.566104736E0,-7.568112030E0,3.517684937E-1,8.845867580E0
1.912085254E1,4.525838470E0,-6.315666504E0,-8.062234497E-1,7.811584570E0
1.913077354E1,4.492008820E0,-5.431754608E0,-1.574875031E0,7.222349529E0
1.914069454E1,4.538112946E0,-5.086422729E0,-2.010618896E0,7.106951079E0
1.915061554E1,4.673281860E0,-5.216951294E0,-2.158511353E0,7.329073298E0
1.916053654E1,4.874613190E0,-5.725593567E0,-1.997595978E0,7.780402633E0
1.917045754E1,5.069807281E0,-6.655609589E0,-1.522633667E0,8.504028348E0
1.918037854E1,5.142256622E0,-7.739355927E0,-7.569758606E-1,9.322738105E0
1.919029954E1,5.153034210E0,-8.669072571E0,5.792953491E-2,1.008513444E1
1.920022054E1,5.301076355E0,-9.165889435E0,7.417076111E-1,1.061438033E1
1.921014154E1,5.294340363E0,-9.448801117E0,1.228345642E0,1.090039978E1
1.922006254E1,5.004393311E0,-9.526040497E0,1.544488220E0,1.087082535E1
1.922998354E1,4.702321472E0,-9.465715942E0,1.515448608E0,1.067746178E1
1.923990454E1,4.692591705E0,-9.123976593E0,1.096320190E0,1.031839541E1
1.924982554E1,5.060227203E0,-8.722212067E0,5.764512634E-1,1.010025637E1
1.925974654E1,5.568570099E0,-8.360115051E0,1.787283325E-1,1.004651384E1
1.926966754E1,6.014792175E0,-8.034542084E0,4.385879517E-2,1.003660874E1
1.927958854E1,6.282136230E0,-7.729027405E0,1.793270874E-1,9.961689538E0
1.928950954E1,6.441405029E0,-7.512727203E0,4.727169800E-1,9.907382607E0
1.929943054E1,6.626270599E0,-7.417974243E0,8.460406494E-1,9.982464060E0
1.930935154E1,6.688990173E0,-7.459288330E0,1.273851013E0,1.009981526E1
1.931927254E1,6.599925385E0,-7.443720703E0,1.540446625E0,1.006682516E1
1.932919354E1,6.485712891E0,-7.372768250E0,1.553020477E0,9.941531872E0
1.933911454E1,6.386169891E0,-7.314389648E0,1.299148407E0,9.796491637E0
1.934903554E1,6.279741211E0,-7.265441437E0,8.577163696E-1,9.641445240E0
1.935895654E1,6.209088135E0,-7.171137543E0,3.122506714E-1,9.490810798E0
1.936887754E1,6.154302063E0,-7.065307617E0,-2.275268555E-1,9.372607646E0
1.937879854E1,6.063441010E0,-7.014563141E0,-6.926097107E-1,9.297801952E0
1.938871954E1,5.894741821E0,-7.026388550E0,-1.055006104E0,9.232072090E0
1.939864054E1,5.619015198E0,-7.169341278E0,-1.180894318E0,9.185167257E0
1.940856154E1,5.401068420E0,-7.436535645E0,-1.106049957E0,9.257264660E0
1.941848254E1,5.148842926E0,-7.806117096E0,-8.303233337E-1,9.388050087E0
1.942840354E1,4.886887665E0,-8.204588470E0,-4.694238281E-1,9.561239551E0
1.943832454E1,4.740941162E0,-8.536148987E0,-1.788780212E-1,9.765979724E0
1.944824554E1,4.531376953E0,-8.778644714E0,8.532257080E-3,9.879172684E0
1.945816654E1,4.484524384E0,-8.945697327E0,2.874023438E-2,1.000686193E1
1.946808754E1,4.539460144E0,-9.078171844E0,8.502319336E-2,1.015022814E1
1.947800854E1,4.421804810E0,-8.900191956E0,5.957611084E-2,9.938275702E0
1.948792954E1,4.554878082E0,-8.649463348E0,1.133143616E-1,9.776142936E0
1.949785054E1,5.150190125E0,-8.354426880E0,2.766247559E-1,9.818219190E0
1.950777154E1,5.670957184E0,-8.194858704E0,4.954696655E-1,9.978023589E0
1.951769254E1,5.985303497E0,-8.003556519E0,7.430548096E-1,1.002162189E1
1.952761354E1,6.019432526E0,-7.827821960E0,9.090596008E-1,9.916388150E0
1.953753454E1,5.829627228E0,-7.760012970E0,9.467811584E-1,9.751858770E0
1.954745554E1,5.721551971E0,-7.859106903E0,8.882528687E-1,9.761696135E0
1.955737654E1,5.583688660E0,-7.939938812E0,6.938072205E-1,9.731473468E0
1.956729754E1,5.479205933E0,-8.033045197E0,4.605921936E-1,9.734662703E0
1.957721854E1,5.387895813E0,-8.073012085E0,2.435435486E-1,9.708875263E0
1.958713954E1,5.337750092E0,-7.998317413E0,7.873626709E-2,9.616176833E0
1.959706054E1,5.424270172E0,-8.005352783E0,6.646179199E-2,9.670201510E0
1.960698154E1,5.563181305E0,-8.015082550E0,1.917512512E-1,9.758447779E0
1.961690254E1,5.650749207E0,-8.024063873E0,3.582051086E-1,9.820635343E0
1.962682354E1,5.635480957E0,-8.055648193E0,4.891827393E-1,9.843343598E0
1.963674454E1,5.506299591E0,-8.095465393E0,5.131329346E-1,9.804040010E0
1.964666554E1,5.420827332E0,-8.245004425E0,4.215234375E-1,9.876393519E0
1.965658654E1,5.371579742E0,-8.355325012E0,1.408570862E-1,9.934040754E0
1.966650754E1,5.366939392E0,-8.335566101E0,-1.972897339E-1,9.915877364E0
1.967642854E1,5.497767334E0,-8.263416138E0,-4.429289246E-1,9.935073123E0
1.968634954E1,5.692362671E0,-8.115673370E0,-5.547463989E-1,9.928488838E0
1.969627054E1,5.960754547E0,-7.934250641E0,-4.604425049E-1,9.934532465E0
1.970619154E1,6.318360901E0,-7.818241882E0,-1.101708984E-1,1.005279704E1
1.971611254E1,6.486311646E0,-7.864495697E0,4.050576782E-1,1.020228421E1
1.972603354E1,6.346352692E0,-7.748486938E0,6.218069458E-1,1.003503294E1
1.973595454E1,6.128705292E0,-7.567513275E0,3.269201660E-1,9.743467684E0
1.974587554E1,5.827531586E0,-7.431745605E0,-2.859054565E-1,9.448423628E0
1.975579654E1,5.560935974E0,-7.551346893E0,-6.676116943E-1,9.401731446E0
1.976571779E1,5.550457764E0,-7.819738770E0,-8.370593262E-1,9.625827971E0
1.977563879E1,5.604345703E0,-8.049061890E0,-8.234376526E-1,9.842466034E0
1.978555979E1,5.358856201E0,-8.618926849E0,-4.710704041E-1,1.015997771E1
1.979548079E1,5.235363007E0,-8.864416351E0,9.669891357E-2,1.029544820E1
1.980540179E1,5.106930084E0,-8.912316742E0,6.465055847E-1,1.029213749E1
1.981532279E1,5.060825958E0,-8.931626587E0,1.020727386E0,1.031638489E1
1.982524379E1,5.162015533E0,-9.095835114E0,1.161434784E0,1.052281101E1
1.983516479E1,5.342390442E0,-9.276509399E0,1.153201904E0,1.076683040E1
1.984508579E1,5.520669708E0,-9.322912903E0,1.156495056E0,1.089642051E1
1.985500679E1,5.584736481E0,-9.251960449E0,1.242715759E0,1.087806951E1
1.986492779E1,5.605243835E0,-9.114246826E0,1.298250275E0,1.077839076E1
1.987484879E1,5.581742706E0,-9.050778809E0,1.292262726E0,1.071178751E1
1.988476979E1,5.647755432E0,-9.374106445E0,1.235979767E0,1.101356704E1
1.989468979E1,5.822891235E0,-9.975106659E0,1.072369995E0,1.159994796E1
1.990461179E1,6.268514557E0,-1.041803558E1,8.304730225E-1,1.218685462E1
1.991453179E1,6.478677521E0,-1.088072342E1,8.065228271E-1,1.268912462E1
1.992445279E1,6.667884064E0,-1.096694412E1,1.064286804E0,1.287894591E1
1.993437379E1,7.182513885E0,-1.014215927E1,1.397643585E0,1.250621078E1
1.994429479E1,7.659871216E0,-8.955576782E0,1.843416595E0,1.192787354E1
1.995421579E1,7.916287994E0,-7.912695465E0,2.076481934E0,1.138376662E1
1.996413679E1,8.056995392E0,-7.087311859E0,1.872156830E0,1.089266429E1
1.997405779E1,8.076305237E0,-6.423741760E0,1.167422333E0,1.038527994E1
1.998397879E1,8.021369476E0,-5.879473572E0,5.987548828E-4,9.945379737E0
1.999389979E1,7.989785156E0,-5.402265930E0,-1.017883301E0,9.698310700E0
2.000382079E1,8.077502747E0,-5.001249847E0,-1.505419464E0,9.618983232E0
2.001374179E1,8.149203644E0,-4.681215363E0,-1.308129730E0,9.488651152E0
2.002366279E1,8.229137421E0,-4.580923920E0,-4.728666687E-1,9.430120335E0
2.003358379E1,8.551267548E0,-4.735103302E0,4.525090027E-1,9.785200271E0
2.004350479E1,9.099577332E0,-5.184319153E0,1.377585297E0,1.056301159E1
2.005342579E1,9.652677155E0,-5.783223724E0,1.961520996E0,1.142223347E1
2.006334679E1,1.027388535E1,-6.373446350E0,2.185305634E0,1.228613443E1
2.007326779E1,1.056577835E1,-6.890770569E0,1.870959320E0,1.275221079E1
2.008318879E1,1.035830978E1,-7.395371246E0,1.098266144E0,1.277467362E1
2.009310979E1,1.007180557E1,-7.857460327E0,7.000941467E-1,1.279339994E1
2.010303079E1,9.719737701E0,-7.941136322E0,6.878196716E-1,1.257012502E1
2.011295179E1,8.972192230E0,-7.810458069E0,7.485932922E-1,1.191905536E1
2.012287279E1,7.955955505E0,-7.662415924E0,9.126521301E-1,1.108344620E1
2.013279379E1,6.840026093E0,-7.391928406E0,8.901988220E-1,1.011034205E1
2.014271479E1,5.931265869E0,-7.291786652E0,1.259031830E0,9.483418610E0
2.015263579E1,5.534441071E0,-7.493417358E0,1.979932709E0,9.523732210E0
2.016255679E1,5.233117676E0,-7.525750122E0,2.436932373E0,9.484781226E0
2.017247779E1,4.765490112E0,-7.345524902E0,2.593656464E0,9.132014343E0
2.018239879E1,4.392465820E0,-7.177125092E0,2.428250427E0,8.757926735E0
2.019231979E1,4.236789551E0,-7.020401001E0,2.012265472E0,8.443081679E0
2.020224079E1,4.266876984E0,-6.781797180E0,1.742227020E0,8.199656528E0
2.021216179E1,4.497547302E0,-6.452332306E0,1.670226746E0,8.040533645E0
2.022208279E1,4.842280426E0,-6.047873383E0,1.678010559E0,7.927179297E0
2.023200379E1,5.187612305E0,-5.578599243E0,1.731000366E0,7.812070993E0
2.024192479E1,5.481900330E0,-5.241799622E0,1.814676361E0,7.798765594E0
2.025184579E1,5.594466248E0,-5.027894440E0,1.857337646E0,7.747740201E0
2.026176679E1,5.746250610E0,-4.898114319E0,1.822310486E0,7.767350608E0
2.027168779E1,6.073021088E0,-4.789739685E0,1.716630249E0,7.922752728E0
2.028160879E1,6.432124329E0,-4.708458710E0,1.642983398E0,8.138869777E0
2.029152979E1,6.720574493E0,-4.615352325E0,1.585502930E0,8.305505292E0
2.030145079E1,6.752607880E0,-4.479734344E0,1.625769196E0,8.264917329E0
2.031137179E1,6.606062622E0,-4.430187378E0,1.869163055E0,8.170703403E0
2.032129279E1,6.348598022E0,-4.496649170E0,2.204316101E0,8.086010146E0
2.033121379E1,6.100264435E0,-4.717440033E0,2.508782959E0,8.109343905E0
2.034113479E1,5.955365753E0,-4.983586578E0,2.816093903E0,8.260320896E0
2.035105579E1,5.867498474E0,-5.236111450E0,3.076103210E0,8.444336115E0
2.036097679E1,5.806275787E0,-5.459297333E0,3.301833801E0,8.626637371E0
2.037089779E1,5.763315125E0,-5.647306366E0,3.502566376E0,8.796353883E0
2.038081879E1,5.716612244E0,-5.816753998E0,3.601360931E0,8.915384634E0
2.039073979E1,5.669460297E0,-6.023623810E0,3.576961670E0,9.012295970E0
2.040066079E1,5.606291656E0,-6.308930511E0,3.527863770E0,9.147618986E0
2.041058179E1,5.571264496E0,-6.716083832E0,3.575614471E0,9.430259221E0
2.042050279E1,5.431455231E0,-7.110214233E0,3.559897156E0,9.629575283E0
2.043042379E1,5.123695221E0,-7.505242767E0,3.745960236E0,9.829198329E0
2.044034479E1,4.680616608E0,-7.805668030E0,4.074526978E0,9.971880229E0
2.045026579E1,4.340074768E0,-7.886050873E0,4.092040558E0,9.887914001E0
2.046018679E1,4.183949432E0,-7.822283478E0,4.096082153E0,9.770948811E0
2.047010779E1,4.182153168E0,-7.690557404E0,4.213138733E0,9.715226002E0
2.048002879E1,4.320914612E0,-7.529043274E0,4.147275696E0,9.620638825E0
2.048994979E1,4.502487030E0,-7.409741364E0,4.110152893E0,9.595312050E0
2.049987079E1,4.576732635E0,-7.393275604E0,4.393064575E0,9.741972189E0
2.050979179E1,4.473447418E0,-7.533683624E0,4.991669769E0,1.008389249E1
2.051971279E1,4.250560913E0,-7.777975616E0,5.686375122E0,1.053086107E1
2.052963379E1,3.923940125E0,-8.046666870E0,6.174959106E0,1.087548959E1
2.053955479E1,3.606300659E0,-8.314759369E0,6.296206970E0,1.103552672E1
2.054947579E1,3.480262756E0,-8.488248596E0,6.087241516E0,1.100986387E1
2.055939679E1,3.641327820E0,-8.447084198E0,5.785918121E0,1.086689230E1
2.056931779E1,3.984414368E0,-8.165370026E0,5.611530762E0,1.067886244E1
2.057923879E1,4.367767181E0,-7.796537018E0,5.539530487E0,1.051426544E1
2.058915979E1,4.795876923E0,-7.426955566E0,5.488336945E0,1.040586118E1
2.059908079E1,5.243745575E0,-7.037914581E0,5.422473907E0,1.031660470E1
2.060900179E1,5.593119049E0,-6.647227020E0,5.301525421E0,1.017716953E1
2.061892279E1,5.733976135E0,-6.261479187E0,5.143154755E0,9.926562585E0
2.062884379E1,5.687572632E0,-5.909561005E0,4.953499146E0,9.581677697E0
2.063876479E1,5.563929749E0,-5.611680450E0,4.694387970E0,9.191602153E0
2.064868579E1,5.419929199E0,-5.394631805E0,4.338278503E0,8.791947749E0
2.065860679E1,5.294490051E0,-5.276826782E0,3.890110474E0,8.426712603E0
2.066852779E1,5.252726898E0,-5.257217560E0,3.459456024E0,8.197396680E0
2.067844879E1,5.334157562E0,-5.390290833E0,3.049308929E0,8.173540060E0
2.068836979E1,5.639971619E0,-5.710624695E0,2.635419617E0,8.447837050E0
2.069829079E1,6.304140472E0,-6.242768097E0,2.214494934E0,9.144305792E0
2.070821179E1,7.361242218E0,-6.936425629E0,2.019151154E0,1.031401274E1
2.071813279E1,8.444689178E0,-7.560328217E0,2.041005707E0,1.151681563E1
2.072805379E1,9.335337067E0,-8.045169983E0,2.183509369E0,1.251562988E1
2.073797479E1,9.976753235E0,-8.580307159E0,2.535726929E0,1.340101441E1
2.074789579E1,1.014485367E1,-9.180409241E0,3.012036438E0,1.400965143E1
2.075781679E1,9.890682220E0,-9.709259491E0,3.407364349E0,1.427254170E1
2.076773821E1,9.724228363E0,-1.020353165E1,4.062402191E0,1.466887136E1
2.077765921E1,9.094787292E0,-1.025816803E1,5.387895813E0,1.473005732E1
2.078758021E1,7.837551727E0,-9.733059998E0,7.098538513E0,1.437181001E1
2.079750121E1,6.649622040E0,-8.412206726E0,7.160958710E0,1.289426326E1
2.080742221E1,6.064039764E0,-6.714137878E0,5.553750916E0,1.061585489E1
2.081734321E1,5.861211548E0,-5.175337830E0,3.428769836E0,8.537820861E0
2.082726421E1,5.759722595E0,-3.946543121E0,1.174457703E0,7.080180639E0
2.083718521E1,5.602998505E0,-3.243305511E0,-4.918771362E-1,6.492654773E0
2.084710621E1,5.222789154E0,-3.223247223E0,-1.322499847E0,6.278204764E0
2.085702721E1,4.935087433E0,-3.703298950E0,-1.585802307E0,6.370579255E0
2.086694821E1,5.037175140E0,-4.180656281E0,-1.546284485E0,6.726218554E0
2.087686921E1,5.555247803E0,-5.209766235E0,-1.460961914E0,7.754795425E0
2.088679021E1,5.895190887E0,-6.677613831E0,-1.353635101E0,9.009779690E0
2.089671121E1,5.827232208E0,-8.029302979E0,-1.059646454E0,9.977434146E0
2.090663221E1,5.561385040E0,-9.120384064E0,-5.495072937E-1,1.069637169E1
2.091655321E1,5.194797363E0,-9.928254089E0,1.145118713E-1,1.120576913E1
2.092647421E1,4.894970856E0,-1.038899597E1,6.985972595E-1,1.150565144E1
2.093639521E1,4.645589447E0,-1.074794952E1,9.957293701E-1,1.175122961E1
2.094631621E1,4.593797150E0,-1.072908875E1,8.837622070E-1,1.170458684E1
2.095623721E1,4.744533691E0,-1.030591873E1,3.501219177E-1,1.135099759E1
2.096615821E1,4.898563385E0,-9.620045013E0,-2.885998535E-1,1.079928142E1
2.097607921E1,5.070705414E0,-8.925189972E0,-8.065228271E-1,1.029667658E1
2.098600021E1,5.290897522E0,-8.295449524E0,-1.125210114E0,9.903240742E0
2.099592121E1,5.734874268E0,-7.781119080E0,-1.165626068E0,9.736184115E0
2.100584221E1,6.381978607E0,-7.442972260E0,-8.131091309E-1,9.838121439E0
2.101576321E1,6.966662750E0,-7.247329102E0,3.637435913E-2,1.005283503E1
2.102568421E1,7.320676575E0,-7.257957001E0,1.182091827E0,1.037629926E1
2.103560521E1,7.332052917E0,-7.383246460E0,2.234253845E0,1.064251937E1
2.104552621E1,7.113208008E0,-7.467371521E0,2.793041840E0,1.068458929E1
2.105544721E1,6.863676910E0,-7.558232574E0,2.548001404E0,1.052279675E1
2.106536821E1,6.748416595E0,-7.557334442E0,1.529070282E0,1.024658413E1
2.107528921E1,6.626569977E0,-7.501799927E0,3.107537842E-1,1.001423985E1
2.108521021E1,6.452182617E0,-7.442822571E0,-5.884263611E-1,9.867751209E0
2.109513121E1,6.397396545E0,-7.417674866E0,-9.836045837E-1,9.844595520E0
2.110505221E1,6.297254791E0,-7.391479340E0,-1.009351044E0,9.762590551E0
2.111497321E1,6.101312256E0,-7.374265137E0,-8.000862122E-1,9.604474764E0
2.112489421E1,5.947581940E0,-7.417974243E0,-5.043013000E-1,9.521260032E0
2.113481521E1,5.846092987E0,-7.530689850E0,-2.001338196E-1,9.535625117E0
2.114473621E1,5.728138275E0,-7.664661255E0,-3.951782227E-2,9.568707431E0
2.115465721E1,5.608836365E0,-7.793992310E0,-3.188369751E-2,9.602415220E0
2.116457821E1,5.492079163E0,-7.860603790E0,-1.252894592E-1,9.589980340E0
2.117449921E1,5.327720947E0,-7.889493713E0,-2.659968567E-1,9.523627244E0
2.118442021E1,5.157973938E0,-7.997868347E0,-3.842509460E-1,9.524612435E0
2.119434121E1,5.135520630E0,-8.198002167E0,-4.228706360E-1,9.682955708E0
2.120426221E1,5.078938293E0,-8.391399994E0,-4.260140991E-1,9.817978206E0
2.121418321E1,5.010530548E0,-8.624315643E0,-3.920347595E-1,9.981879980E0
2.122410421E1,4.970264282E0,-8.833730164E0,-2.625540161E-1,1.013939102E1
2.123402521E1,4.841232605E0,-8.882079620E0,-2.185455322E-2,1.011579701E1
2.124394621E1,4.704117737E0,-8.867709503E0,3.052153015E-1,1.004281593E1
2.125386721E1,4.603526917E0,-8.705297241E0,5.754034424E-1,9.864367656E0
2.126378821E1,4.572990417E0,-8.471483459E0,5.526507568E-1,9.642805412E0
2.127370821E1,4.731061707E0,-8.329129486E0,2.802172852E-1,9.583103077E0
2.128363021E1,4.965025177E0,-8.232430573E0,-4.745132446E-2,9.613877457E0
2.129355121E1,5.149741058E0,-8.083939362E0,-1.963916016E-1,9.586890957E0
2.130347121E1,5.475763092E0,-7.942333832E0,-1.260379028E-1,9.647825335E0
2.131339221E1,5.878874817E0,-7.890840912E0,1.841171265E-2,9.840064959E0
2.132331321E1,6.086792450E0,-7.872728577E0,2.857557678E-1,9.955428365E0
2.133323421E1,6.090085602E0,-7.875123596E0,5.370831299E-1,9.969712763E0
2.134315521E1,5.978567505E0,-8.100554810E0,7.014413452E-1,1.009228803E1
