"Time (s)","Acceleration x (m/s^2)","Acceleration y (m/s^2)","Acceleration z (m/s^2)","Absolute acceleration (m/s^2)"

3.025813625E0,-1.238000565E1,-1.905238037E0,6.521189117E0,1.412162807E1
3.035734625E0,-1.134595596E1,-2.793341217E0,6.062842255E0,1.316402401E1
3.045655625E0,-9.191336517E0,-2.736459503E0,5.351371765E0,1.098207892E1
3.055576625E0,-6.870562592E0,-2.230811005E0,4.978646851E0,8.773144962E0
3.065496625E0,-5.658083954E0,-1.085692291E0,5.124443665E0,7.710548920E0
3.075417625E0,-5.055736542E0,-7.918533325E-1,5.860463104E0,7.780265514E0
3.085338625E0,-5.591023407E0,-5.496569824E-1,6.779551849E0,8.804770798E0
3.095259625E0,-6.141877899E0,2.986289978E-1,6.553521881E0,8.986684175E0
3.105180625E0,-5.994584198E0,4.285588074E-1,6.288722534E0,8.698662740E0
3.115100625E0,-6.052364044E0,3.233276367E-2,6.530020752E0,8.903556983E0
3.125021625E0,-5.634882202E0,-6.704557800E-1,6.319708099E0,8.493533943E0
3.134942625E0,-5.153782654E0,-1.105151825E0,5.732479248E0,7.787435684E0
3.144863625E0,-4.744683380E0,-1.370100861E0,5.666915588E0,7.516856326E0
3.154783625E0,-4.965623932E0,-2.122136993E0,6.060447235E0,8.117259830E0
3.164704625E0,-5.510041809E0,-2.828368378E0,6.239624634E0,8.791651949E0
3.174625625E0,-5.657634888E0,-2.615960083E0,6.178701324E0,8.776584172E0
3.184546625E0,-4.927902374E0,-1.450932770E0,6.092779999E0,7.969403731E0
3.194466625E0,-4.783452759E0,4.525090027E-1,5.903872833E0,7.611957641E0
3.204387625E0,-4.967270508E0,2.148332520E0,5.802084503E0,7.934311154E0
3.214308625E0,-5.618566132E0,2.949915619E0,5.971083069E0,8.713444815E0
3.224229625E0,-6.464756470E0,3.247945862E0,6.101461945E0,9.464146364E0
3.234149625E0,-8.411009216E0,3.102747803E0,6.206693115E0,1.090390569E1
3.244070625E0,-9.307494965E0,2.946921844E0,6.077811127E0,1.150015648E1
3.253991625E0,-1.053239777E1,2.319875793E0,6.238277435E0,1.245910638E1
3.263912625E0,-1.249870880E1,1.876348114E0,6.481521606E0,1.420382083E1
3.273832625E0,-1.290077271E1,1.777254181E0,5.967041473E0,1.432459957E1
3.283753625E0,-1.090766739E1,1.875599670E0,4.863087158E0,1.208903217E1
3.293674625E0,-9.842033386E0,2.311493225E0,3.812571716E0,1.080482879E1
3.303595625E0,-1.025996429E1,2.719394989E0,3.233575745E0,1.109585456E1
3.313515625E0,-1.075199112E1,2.412682800E0,3.089874573E0,1.144437312E1
3.323436625E0,-1.051518356E1,1.582958221E0,2.759062500E0,1.098577571E1
3.333357625E0,-1.000773880E1,7.879614258E-1,2.459086304E0,1.033551279E1
3.343278625E0,-9.051976318E0,4.486170959E-1,1.970352631E0,9.274794987E0
3.353198625E0,-9.617350616E0,-1.333726501E-1,2.581831055E0,9.958768636E0
3.363119625E0,-1.092757599E1,-4.656816101E-1,2.041604462E0,1.112640666E1
3.373040625E0,-1.179606995E1,-4.902305603E-1,1.047521667E0,1.185263236E1
3.382961625E0,-1.185594543E1,-7.955955505E-1,9.419911194E-1,1.191988933E1
3.392881625E0,-1.103475311E1,-1.377136230E0,8.815168762E-1,1.115523879E1
3.402802625E0,-9.528884583E0,-1.523382111E0,6.776408386E-1,9.673651407E0
3.412723625E0,-8.775950317E0,-1.523531799E0,5.146298218E-1,8.922067976E0
3.422644625E0,-8.161627808E0,-2.014361115E0,4.336482239E-1,8.417711681E0
3.432565625E0,-7.102879486E0,-2.765349426E0,5.261558533E-1,7.640346486E0
3.442485625E0,-6.872209167E0,-2.862946472E0,6.855743408E-1,7.476211174E0
3.452406625E0,-8.875044250E0,-2.762655029E0,7.619155884E-1,9.326263379E0
3.462327625E0,-1.133083740E1,-2.540217590E0,5.894741821E-1,1.162704010E1
3.472247625E0,-1.205473206E1,-2.335593109E0,-6.691085815E-2,1.227908943E1
3.482168625E0,-1.168365372E1,-2.135758667E0,-8.978329468E-1,1.191114324E1
3.492089625E0,-1.057685532E1,-2.109114075E0,-1.136137390E0,1.084477011E1
3.502010625E0,-1.003902374E1,-2.170187073E0,-1.017434235E0,1.032118608E1
3.511931625E0,-1.017434235E1,-2.474504242E0,-5.948629761E-1,1.048781557E1
3.521851625E0,-1.110286148E1,-2.529889069E0,4.640350342E-2,1.138753815E1
3.531772625E0,-1.187196213E1,-2.557282104E0,5.869294739E-1,1.215843998E1
3.541693625E0,-1.254496262E1,-2.262694702E0,7.509883118E-1,1.276948933E1
3.551614625E0,-1.404963364E1,-1.862277374E0,5.445675659E-1,1.418297699E1
3.561534625E0,-1.439286987E1,-1.208437042E0,1.106798401E0,1.448585607E1
3.571455625E0,-1.378902557E1,-6.897656250E-1,2.422711945E0,1.401722284E1
3.581376625E0,-1.391955414E1,-1.309476929E0,2.800226898E0,1.425868114E1
3.591297625E0,-1.373528732E1,-1.570983124E0,3.002456360E0,1.414711455E1
3.601217625E0,-1.326466599E1,-1.287921753E0,2.953508148E0,1.365039620E1
3.611138625E0,-1.283011963E1,-9.069639587E-1,2.858006744E0,1.317583985E1
3.621059625E0,-1.211775101E1,-4.409829712E-1,2.772833862E0,1.243876855E1
3.630980625E0,-1.096170502E1,-3.772155762E-2,3.596570892E0,1.153671192E1
3.640900625E0,-9.679770813E0,1.184037781E-1,4.097579041E0,1.051199964E1
3.650821625E0,-8.599617004E0,7.379653931E-2,4.104315033E0,9.529126951E0
3.660742625E0,-7.852370911E0,-3.311114502E-1,3.985462189E0,8.812109428E0
3.670663625E0,-7.321125641E0,-5.397775269E-1,3.954925690E0,8.338565682E0
3.680583625E0,-6.825805664E0,-5.426216125E-1,3.826642456E0,7.844058494E0
3.690504625E0,-6.628066864E0,-7.801776123E-1,4.291126556E0,7.934337690E0
3.700425625E0,-6.329587555E0,-1.055455170E0,4.658762054E0,7.929800004E0
3.710346625E0,-5.985453186E0,-1.162183228E0,4.764142914E0,7.737788922E0
3.720266625E0,-5.396428070E0,-1.105002136E0,4.703818359E0,7.243505560E0
3.730187625E0,-4.454137573E0,-7.575746155E-1,4.194277954E0,6.164838066E0
3.740108625E0,-4.221521301E0,-7.967930603E-1,3.139271851E0,5.320822214E0
3.750029625E0,-4.612657928E0,-1.191671906E0,2.868185577E0,5.560861768E0
3.759949625E0,-4.502037964E0,-1.276246033E0,2.412982178E0,5.264943756E0
3.769870625E0,-4.439019012E0,-1.169817352E0,1.941612396E0,4.984297456E0
3.779791625E0,-5.092859344E0,-1.169368286E0,2.009571075E0,5.598483223E0
3.789712625E0,-6.110443268E0,-1.343156891E0,2.138902130E0,6.611844651E0
3.799633542E0,-7.024741974E0,-1.522933044E0,2.349663849E0,7.562224875E0
3.809554542E0,-7.732769623E0,-1.660496979E0,2.494712219E0,8.293163770E0
3.819475542E0,-8.002808075E0,-1.723366241E0,2.724484406E0,8.627731078E0
3.829396542E0,-8.809330902E0,-1.951342163E0,3.103795624E0,9.541781514E0
3.839316542E0,-1.051697983E1,-2.441722412E0,3.312162323E0,1.129332955E1
3.849237542E0,-1.132634674E1,-2.683619385E0,3.556304626E0,1.217108237E1
3.859158542E0,-1.179412399E1,-2.943778381E0,3.634292450E0,1.268760314E1
3.869079542E0,-1.218361404E1,-3.306324463E0,3.960913239E0,1.323106444E1
3.878999542E0,-1.239617203E1,-3.583248596E0,4.277055817E0,1.359404126E1
3.888920542E0,-1.196776291E1,-3.253933411E0,4.644691315E0,1.324343570E1
3.898841542E0,-1.075887680E1,-2.763403473E0,5.217699738E0,1.227249850E1
3.908762542E0,-9.954299927E0,-2.725831604E0,6.116281128E0,1.199696377E1
3.918683542E0,-8.948840790E0,-2.387235718E0,6.492149506E0,1.131055485E1
3.928603542E0,-8.204887848E0,-1.763033752E0,6.215824127E0,1.044341621E1
3.938524542E0,-8.414302368E0,-1.092128906E0,6.084547119E0,1.044102215E1
3.948445542E0,-8.077802124E0,-3.155438232E-1,6.266718292E0,1.022850005E1
3.958366542E0,-7.598349152E0,1.990859985E-1,6.166576538E0,9.787809319E0
3.968286542E0,-8.939260712E0,5.046006775E-1,6.346951447E0,1.097491670E1
3.978207542E0,-1.144624741E1,9.375004578E-1,6.406228180E0,1.315048464E1
3.988128542E0,-1.377001511E1,1.559906158E0,6.628515930E0,1.536176574E1
3.998049542E0,-1.517170029E1,2.140249329E0,6.610403595E0,1.668707861E1
4.007969542E0,-1.549083664E1,2.634072418E0,5.765261078E0,1.673746076E1
4.017890542E0,-1.603809860E1,3.064277802E0,4.924758911E0,1.705472531E1
4.027811542E0,-1.553709045E1,3.187770996E0,3.951482849E0,1.634555843E1
4.037732542E0,-1.493399460E1,2.634970551E0,2.810555420E0,1.542292081E1
4.047652542E0,-1.386521713E1,2.211052094E0,1.726060638E0,1.414610486E1
4.057573542E0,-1.259525803E1,2.069296875E0,7.656578064E-1,1.278705385E1
4.067494542E0,-1.149923721E1,1.902693329E0,-1.146615601E-1,1.165615055E1
4.077415542E0,-1.036549484E1,1.734443207E0,-9.339079285E-1,1.055101704E1
4.087335542E0,-9.349707184E0,1.603615265E0,-1.327289886E0,9.578637940E0
4.097256542E0,-8.366102600E0,1.482367401E0,-1.399739227E0,8.610943951E0
4.107177542E0,-7.654183044E0,1.424886932E0,-1.378034363E0,7.906693339E0
4.117098542E0,-7.196884003E0,1.390907593E0,-1.224004669E0,7.431551030E0
4.127018542E0,-6.810537415E0,1.366957397E0,-1.106349335E0,7.033917916E0
4.136939542E0,-6.770121460E0,1.395398254E0,-9.783654785E-1,6.981323648E0
4.146860542E0,-6.983128510E0,1.393152924E0,-8.652008057E-1,7.173111688E0
4.156781542E0,-7.449558563E0,1.362017670E0,-7.924520874E-1,7.614393950E0
4.166701542E0,-8.148155823E0,1.311273193E0,-7.929011536E-1,8.290993483E0
4.176622542E0,-9.014404449E0,1.196012878E0,-8.542735291E-1,9.133439530E0
4.186543542E0,-9.823471985E0,1.051114197E0,-9.952803040E-1,9.929553151E0
4.196464542E0,-1.045381119E1,8.925938416E-1,-1.081201630E0,1.054741149E1
4.206384542E0,-1.096275284E1,7.521858215E-1,-1.119971008E0,1.104545465E1
4.216305542E0,-1.131916168E1,6.547384644E-1,-1.074315948E0,1.138886554E1
4.226226542E0,-1.130554001E1,5.751040649E-1,-9.589059448E-1,1.136069893E1
4.236147542E0,-1.100900665E1,5.746549988E-1,-8.039781189E-1,1.105327267E1
4.246067542E0,-1.097397949E1,5.966592407E-1,-6.303392029E-1,1.100824944E1
4.255988542E0,-1.068163742E1,5.965095520E-1,-4.995112610E-1,1.070993525E1
4.265909542E0,-1.032088760E1,6.256988525E-1,-3.182382202E-1,1.034473274E1
4.275830542E0,-1.009560608E1,6.942562866E-1,-1.390608215E-1,1.012040473E1
4.285750542E0,-9.922565918E0,8.204438782E-1,-5.748046875E-2,9.956593120E0
4.295671542E0,-9.751621399E0,9.406439209E-1,-1.347198486E-3,9.796883826E0
4.305592542E0,-9.321715393E0,1.052311707E0,-0.000000000E0,9.380924144E0
4.315513542E0,-8.757987671E0,1.214723969E0,-7.140151978E-2,8.842115162E0
4.325433542E0,-8.432714081E0,1.205742645E0,-5.049000549E-1,8.533428746E0
4.335354542E0,-8.272247772E0,1.146016846E0,-9.201365662E-1,8.401790828E0
4.345275542E0,-8.141868896E0,1.041983185E0,-1.090781708E0,8.280432526E0
4.355196542E0,-7.995323639E0,1.011296997E0,-9.508227539E-1,8.114923636E0
4.365116542E0,-7.931556244E0,9.491761780E-1,-8.791218567E-1,8.036378233E0
4.375037542E0,-7.974666595E0,7.466473389E-1,-1.036744080E0,8.076362290E0
4.384958542E0,-7.901917877E0,5.409750366E-1,-1.199605408E0,8.010743615E0
4.394879542E0,-7.917635193E0,3.089575195E-1,-1.326691132E0,8.033959868E0
4.404799542E0,-7.978109436E0,4.385879517E-2,-1.456171875E0,8.110030228E0
4.414720542E0,-7.984396362E0,-2.389031982E-1,-1.588496704E0,8.144383450E0
4.424641542E0,-7.949518890E0,-6.156697083E-1,-1.651815033E0,8.142628119E0
4.434562542E0,-7.898774414E0,-1.007554779E0,-1.661095734E0,8.134189751E0
4.444483542E0,-7.807613983E0,-1.345701599E0,-1.647474060E0,8.092213522E0
4.454403542E0,-7.797435150E0,-1.715283051E0,-1.650467834E0,8.152682683E0
4.464324542E0,-8.019722900E0,-2.055226135E0,-1.678908691E0,8.447404587E0
4.474245542E0,-8.293503571E0,-2.345771942E0,-1.634600830E0,8.772500633E0
4.484165542E0,-8.290360107E0,-2.551893311E0,-1.635648651E0,8.827093332E0
4.494086542E0,-8.320746918E0,-2.730921021E0,-1.666933594E0,8.914674783E0
4.504007542E0,-8.489296417E0,-2.887645111E0,-1.586550751E0,9.106250119E0
4.513928542E0,-9.022637329E0,-2.999163208E0,-7.960446167E-1,9.541312874E0
4.523848542E0,-9.582922211E0,-2.969973907E0,6.755451965E-1,1.005532219E1
4.533769542E0,-1.031549881E1,-2.761307831E0,2.388882294E0,1.094262744E1
4.543690542E0,-1.168455185E1,-2.546504517E0,3.995042267E0,1.260848127E1
4.553611542E0,-1.239213043E1,-2.197280731E0,5.242548065E0,1.363368070E1
4.563531542E0,-1.289209076E1,-1.672322388E0,6.300398254E0,1.444637271E1
4.573452542E0,-1.310195435E1,-1.204096069E0,7.078330536E0,1.494034197E1
4.583373542E0,-1.277069321E1,-7.689509583E-1,7.909851379E0,1.504153049E1
4.593294542E0,-1.227612167E1,-3.341052246E-1,9.442663879E0,1.549124562E1
4.603215542E0,-1.134775223E1,7.843688965E-2,1.157438095E1,1.620937776E1
4.613135542E0,-1.076920532E1,6.239025879E-1,1.470796463E1,1.823977142E1
4.623056542E0,-9.209598541E0,1.212628326E0,1.700718338E1,1.937863409E1
4.632977542E0,-7.767497406E0,1.594633942E0,1.800815186E1,1.967664622E1
4.642897542E0,-7.937543793E0,1.604812775E0,1.683114944E1,1.867799821E1
4.652818542E0,-9.866881714E0,9.475296021E-1,1.308518921E1,1.641570418E1
4.662739542E0,-1.088281906E1,3.737727356E-1,9.186845856E0,1.424688013E1
4.672660542E0,-1.170895111E1,1.818717957E-1,6.252348175E0,1.327495654E1
4.682581542E0,-1.223241257E1,1.023870850E-1,4.158951416E0,1.292049833E1
4.692501542E0,-1.268252655E1,-2.246827698E-1,2.489622803E0,1.292653023E1
4.702422542E0,-1.346524887E1,-6.848258972E-1,9.566606140E-1,1.351654960E1
4.712343542E0,-1.275437714E1,-1.158740387E0,-5.191204834E-1,1.281742180E1
4.722264542E0,-1.170311325E1,-1.546284485E0,-1.413061523E0,1.188909577E1
4.732184542E0,-1.062610291E1,-1.799557800E0,-1.942360840E0,1.095103816E1
4.742105542E0,-9.462123413E0,-1.847607880E0,-2.252665558E0,9.900501830E0
4.752026542E0,-8.547824707E0,-1.781146088E0,-2.260599060E0,9.019317974E0
4.761946542E0,-7.639663239E0,-1.569186859E0,-2.172133026E0,8.095984417E0
4.771867542E0,-6.953639832E0,-1.233435059E0,-2.017654266E0,7.344753072E0
4.781788542E0,-6.827003174E0,-9.113049316E-1,-1.870210876E0,7.136955775E0
4.791709542E0,-7.170089722E0,-6.884184265E-1,-1.829944611E0,7.431877544E0
4.801628375E0,-7.646099854E0,-5.433700562E-1,-1.815873871E0,7.877530825E0
4.811549375E0,-8.269553375E0,-4.200265503E-1,-1.814227295E0,8.476635890E0
4.821470375E0,-8.894952850E0,-2.692900085E-1,-1.811682587E0,9.081569089E0
4.831391375E0,-9.502689056E0,-1.249900818E-1,-1.855840759E0,9.683019506E0
4.841311375E0,-1.004605911E1,2.649490356E-2,-1.894909515E0,1.022324253E1
4.851232375E0,-1.036624329E1,2.308200073E-1,-1.886227570E0,1.053898155E1
4.861153375E0,-1.035801041E1,4.478686523E-1,-1.881287842E0,1.053699245E1
4.871074375E0,-1.014874557E1,6.143225098E-1,-1.885928192E0,1.034075210E1
4.880994375E0,-9.784253540E0,7.427554321E-1,-1.827549591E0,9.981144247E0
4.890915375E0,-9.376950531E0,8.527766418E-1,-1.742227020E0,9.575478278E0
4.900836375E0,-9.024433594E0,9.427395630E-1,-1.602717133E0,9.214003569E0
4.910757375E0,-8.692723389E0,1.035696259E0,-1.445543976E0,8.872750647E0
4.920678375E0,-8.440198517E0,1.129700775E0,-1.304537201E0,8.614812369E0
4.930598375E0,-8.279732208E0,1.197659454E0,-1.158441010E0,8.445729050E0
4.940519375E0,-8.178243256E0,1.277593231E0,-1.030307465E0,8.341309291E0
4.950440375E0,-8.130642242E0,1.330732727E0,-9.050180054E-1,8.288380448E0
4.960360375E0,-8.138575745E0,1.355131989E0,-7.836204529E-1,8.287753548E0
4.970281375E0,-8.216563568E0,1.354832611E0,-6.539900208E-1,8.353154567E0
4.980202375E0,-8.296647034E0,1.372944946E0,-5.177732849E-1,8.425403195E0
4.990123375E0,-8.396639099E0,1.382824402E0,-4.083508301E-1,8.519536483E0
5.000043375E0,-8.478219452E0,1.390458527E0,-2.992277527E-1,8.596692226E0
5.009964375E0,-8.567134552E0,1.403631134E0,-1.929487610E-1,8.683501829E0
5.019885375E0,-8.650211792E0,1.417103119E0,-9.505233765E-2,8.766035606E0
5.029806375E0,-8.715625763E0,1.422940979E0,-2.125579834E-2,8.831044405E0
5.039726375E0,-8.744365997E0,1.443148956E0,7.544311523E-2,8.862973952E0
5.049647375E0,-8.789422302E0,1.476828918E0,1.850152588E-1,8.914549832E0
5.059568375E0,-8.848549347E0,1.533710632E0,2.989283752E-1,8.985457808E0
5.069489375E0,-8.909472656E0,1.604962463E0,4.041595459E-1,9.061895633E0
5.079409375E0,-9.071585541E0,1.638792114E0,4.923262024E-1,9.231559397E0
5.089330375E0,-9.243128815E0,1.668430481E0,6.051914978E-1,9.411978926E0
5.099251375E0,-9.388626251E0,1.695524139E0,7.059320068E-1,9.566579587E0
5.109172375E0,-9.673184509E0,1.686842194E0,8.542735291E-1,9.856252756E0
5.119092375E0,-9.962233429E0,1.616638184E0,1.052162018E0,1.014724883E1
5.129013375E0,-1.018452118E1,1.480571136E0,1.412462769E0,1.038805148E1
5.138934375E0,-1.050246002E1,1.312470703E0,1.857786713E0,1.074595819E1
5.148855375E0,-1.070229446E1,1.147064667E0,2.424208832E0,1.103320681E1
5.158775375E0,-1.100810852E1,9.840536499E-1,2.932851105E0,1.143452799E1
5.168696375E0,-1.139086258E1,8.723858643E-1,3.401376801E0,1.191982263E1
5.178617375E0,-1.178409485E1,7.816744995E-1,3.801045685E0,1.240660529E1
5.188538375E0,-1.200698135E1,6.667135620E-1,4.253404999E0,1.275553065E1
5.198458375E0,-1.202913528E1,5.480104065E-1,4.762646027E0,1.294925512E1
5.208379375E0,-1.223854980E1,5.182223511E-1,5.010829926E0,1.323476756E1
5.218300375E0,-1.225950623E1,8.524772644E-1,4.984634399E0,1.326155309E1
5.228221375E0,-1.242760666E1,1.408870239E0,4.504582672E0,1.329366720E1
5.238141375E0,-1.267833527E1,1.663341064E0,3.828738098E0,1.334788837E1
5.248062375E0,-1.256097931E1,1.850901031E0,3.068169708E0,1.306207109E1
5.257983375E0,-1.242865448E1,2.071242828E0,2.231260071E0,1.279609396E1
5.267904375E0,-1.269525009E1,2.167342987E0,1.397344208E0,1.295450969E1
5.277824375E0,-1.320404205E1,2.188898163E0,6.478527832E-1,1.339991474E1
5.287745375E0,-1.372929977E1,2.147284698E0,6.885681152E-3,1.389620636E1
5.297666375E0,-1.407478134E1,1.986968079E0,-4.760101318E-1,1.422230985E1
5.307587375E0,-1.424123520E1,1.765578461E0,-8.098159790E-1,1.437309463E1
5.317507375E0,-1.402433624E1,1.561253357E0,-1.025517426E0,1.414818734E1
5.327428375E0,-1.340567276E1,1.395098877E0,-1.108295288E0,1.352356024E1
5.337349375E0,-1.236219269E1,1.185235291E0,-1.160985718E0,1.247303005E1
5.347270375E0,-1.119117783E1,8.548722839E-1,-1.190624084E0,1.128675567E1
5.357190375E0,-1.035322037E1,4.558021545E-1,-1.236877899E0,1.043680001E1
5.367111375E0,-9.262887726E0,1.062789917E-1,-1.230890350E0,9.344917084E0
5.377032375E0,-8.491691437E0,-2.017803955E-1,-1.167422333E0,8.573938050E0
5.386953375E0,-8.017926636E0,-4.833448792E-1,-1.037642212E0,8.099226578E0
5.396873375E0,-7.831863556E0,-7.589218140E-1,-8.689430237E-1,7.916382448E0
5.406794375E0,-7.891589355E0,-1.044976959E0,-7.155120850E-1,7.992566355E0
5.416715375E0,-7.967631226E0,-1.293460236E0,-5.182223511E-1,8.088556183E0
5.426636375E0,-8.288114777E0,-1.564995575E0,-3.737727356E-1,8.442852821E0
5.436556375E0,-8.789122925E0,-1.801054688E0,-2.932402039E-1,8.976551097E0
5.446477375E0,-9.231752472E0,-1.957778778E0,-1.742376709E-1,9.438670998E0
5.456398375E0,-9.738598480E0,-2.121388550E0,-4.355941772E-2,9.967070139E0
5.466319375E0,-9.910740509E0,-2.226619720E0,1.077758789E-2,1.015779154E1
5.476239375E0,-1.006611740E1,-2.217339020E0,7.679031372E-2,1.030772568E1
5.486160375E0,-9.962083740E0,-2.105671234E0,1.338217163E-1,1.018306791E1
5.496081375E0,-9.780062256E0,-1.917063446E0,2.157014465E-1,9.968514287E0
5.506002375E0,-9.464368744E0,-1.716929626E0,3.092568970E-1,9.623812285E0
5.515922375E0,-9.092991028E0,-1.476679230E0,4.023632813E-1,9.220898199E0
5.525843375E0,-8.719218292E0,-1.241817627E0,3.959266663E-1,8.816100985E0
5.535764375E0,-8.377029877E0,-1.042282562E0,3.161425781E-1,8.447539797E0
5.545685375E0,-8.079748077E0,-8.657995605E-1,1.788780212E-1,8.127972393E0
5.555605375E0,-7.848479004E0,-7.080276489E-1,3.068618774E-2,7.880410362E0
5.565526375E0,-7.707023163E0,-5.439688110E-1,-6.047424316E-2,7.726432892E0
5.575447375E0,-7.644153900E0,-3.772155762E-1,-1.314266968E-1,7.654583817E0
5.585367375E0,-7.642956390E0,-2.017803955E-1,-1.369651794E-1,7.646846224E0
5.595288375E0,-7.740104370E0,-8.322692871E-2,-1.317260742E-2,7.740563022E0
5.605209375E0,-7.907007294E0,4.385879517E-2,1.691482544E-1,7.908937923E0
5.615130375E0,-8.152347107E0,2.466870117E-1,4.105961609E-1,8.166407230E0
5.625050375E0,-8.394244080E0,5.402265930E-1,7.349716187E-1,8.443658077E0
5.634971375E0,-8.555608521E0,8.916957092E-1,1.187779999E0,8.683569526E0
5.644892375E0,-8.500074005E0,1.188827820E0,1.733994141E0,8.756215242E0
5.654813375E0,-8.366551666E0,1.234183502E0,2.354603577E0,8.778755818E0
5.664733375E0,-8.153095551E0,1.166224823E0,2.942281494E0,8.745860037E0
5.674654375E0,-8.020471344E0,1.031954041E0,3.296445007E0,8.732665080E0
5.684575375E0,-7.759713593E0,1.082249451E0,3.532653809E0,8.594420390E0
5.694496375E0,-7.748337250E0,1.251846771E0,3.775598602E0,8.709706957E0
5.704416375E0,-8.077652435E0,1.261277161E0,3.942800903E0,9.076616545E0
5.714337375E0,-8.424032135E0,1.194066925E0,3.976480865E0,9.391619312E0
5.724258375E0,-8.684041443E0,1.094972992E0,3.849395142E0,9.561871396E0
5.734179375E0,-8.837472382E0,1.042132874E0,3.615431671E0,9.605118697E0
5.744099375E0,-8.959917755E0,1.023272095E0,3.340453491E0,9.616955937E0
5.754020375E0,-9.117390289E0,9.707313538E-1,3.163371735E0,9.699280684E0
5.763941375E0,-9.321865082E0,9.175918579E-1,3.020718384E0,9.841945081E0
5.773862375E0,-9.461674347E0,9.562115479E-1,2.933749237E0,9.952110658E0
5.783782375E0,-9.491911469E0,1.101708984E0,2.895578613E0,9.984714393E0
5.793703375E0,-9.508227539E0,1.307530975E0,2.923720093E0,1.003315341E1
5.803625125E0,-9.599537659E0,1.535506897E0,3.069666595E0,1.019469262E1
5.813546125E0,-9.870025177E0,1.790277100E0,3.423081665E0,1.059905548E1
5.823466125E0,-1.031744476E1,2.039359131E0,3.983516235E0,1.124620175E1
5.833387125E0,-1.089868607E1,2.279759216E0,4.662953339E0,1.207152823E1
5.843308125E0,-1.135568573E1,2.325563965E0,5.318290558E0,1.275319805E1
5.853229125E0,-1.150971542E1,2.230661316E0,5.829477539E0,1.309321227E1
5.863149125E0,-1.141645935E1,2.217039642E0,6.252647552E0,1.320403008E1
5.873070125E0,-1.127814697E1,2.349514160E0,6.665039978E0,1.330937917E1
5.882991125E0,-1.110914841E1,2.567311249E0,7.107819214E0,1.343597259E1
5.892912125E0,-1.093206665E1,2.782563629E0,7.657176819E0,1.363396855E1
5.902832125E0,-1.078971268E1,2.910697174E0,8.138575745E0,1.382484983E1
5.912753125E0,-1.076666061E1,2.791844330E0,8.176746368E0,1.380487438E1
5.922674125E0,-1.090123077E1,2.304457855E0,7.454049225E0,1.340560361E1
5.932594125E0,-1.123114471E1,1.521136780E0,6.019133148E0,1.283286533E1
5.942515125E0,-1.164458496E1,6.707551575E-1,4.005819855E0,1.233259357E1
5.952436125E0,-1.213780930E1,9.116043091E-2,1.974693604E0,1.229772904E1
5.962357125E0,-1.252595215E1,1.541793823E-2,6.038442993E-1,1.254050808E1
5.972277125E0,-1.247715363E1,-0.000000000E0,-2.401007080E-1,1.247946357E1
5.982198125E0,-1.193064011E1,-1.776805115E-1,-7.309300232E-1,1.195432986E1
5.992119125E0,-1.208541824E1,-4.978646851E-1,-1.009949799E0,1.213775935E1
6.002040125E0,-1.096499817E1,-6.448590088E-1,-1.200952606E0,1.104940338E1
6.011960125E0,-9.929601288E0,-7.310797119E-1,-1.192420349E0,1.002762811E1
6.021881125E0,-9.318422241E0,-8.135581970E-1,-1.054856415E0,9.413160578E0
6.031802125E0,-8.919801178E0,-8.276289368E-1,-9.440867615E-1,9.007725713E0
6.041723125E0,-8.678053894E0,-7.153623962E-1,-8.665480042E-1,8.750501025E0
6.051643125E0,-8.516988831E0,-5.519023132E-1,-7.529342651E-1,8.567998886E0
6.061564125E0,-8.407865753E0,-3.800596619E-1,-6.240522766E-1,8.439555268E0
6.071485125E0,-8.423732758E0,-2.185455322E-1,-4.992118835E-1,8.441341613E0
6.081406125E0,-8.538993073E0,-5.568420410E-2,-4.592449951E-1,8.551515035E0
6.091326125E0,-8.706943817E0,8.083190918E-2,-4.481680298E-1,8.718845051E0
6.101247125E0,-8.988657990E0,2.124082947E-1,-3.966751099E-1,8.999913382E0
6.111168125E0,-9.364226990E0,3.764671326E-1,-3.201841736E-1,9.377259329E0
6.121089125E0,-9.668544159E0,5.507048035E-1,-2.885998535E-1,9.688514427E0
6.131009125E0,-9.858798523E0,6.698570251E-1,-2.513273621E-1,9.884724690E0
6.140930125E0,-9.976154480E0,7.487429810E-1,-2.083666992E-1,1.000638251E1
6.150851125E0,-1.003079086E1,8.045768738E-1,-1.502874756E-1,1.006412915E1
6.160772125E0,-9.996362457E0,8.092172241E-1,-7.499404907E-2,1.002934290E1
6.170692125E0,-9.911638641E0,8.108638000E-1,-2.260299683E-2,9.944777099E0
6.180613125E0,-9.771979065E0,8.012837219E-1,2.829116821E-2,9.804816716E0
6.190534125E0,-9.593101044E0,7.934999084E-1,8.173004150E-2,9.626209510E0
6.200455125E0,-9.414223022E0,7.933502197E-1,1.597178650E-1,9.448942242E0
6.210375125E0,-9.191186829E0,8.147557068E-1,2.318678284E-1,9.230141108E0
6.220296125E0,-8.973539429E0,8.208929443E-1,3.126997375E-1,9.016432567E0
6.230217125E0,-8.712033234E0,8.396040344E-1,3.585044861E-1,8.759736495E0
6.240137125E0,-8.451874237E0,8.538244629E-1,3.671864319E-1,8.502824249E0
6.250058125E0,-8.297096100E0,8.870553589E-1,4.150868225E-1,8.354697360E0
6.259979125E0,-8.258775787E0,9.119036865E-1,4.511618042E-1,8.321207413E0
6.269900125E0,-8.276738434E0,9.029223633E-1,4.953199768E-1,8.340564116E0
6.279820125E0,-8.329578552E0,8.884025574E-1,5.713618469E-1,8.396284436E0
6.289741125E0,-8.435408478E0,8.454418945E-1,6.230044556E-1,8.500530733E0
6.299662125E0,-8.496930542E0,8.093669128E-1,6.221063232E-1,8.558032467E0
6.309583125E0,-8.565937042E0,7.770341492E-1,6.189628601E-1,8.623350538E0
6.319503125E0,-8.640781403E0,7.213499451E-1,6.159690857E-1,8.692690430E0
6.329424125E0,-8.731193390E0,6.233038330E-1,6.251000977E-1,8.775704861E0
6.339345125E0,-8.871152344E0,5.507048035E-1,6.821315002E-1,8.914366106E0
6.349266125E0,-8.999585266E0,4.870870972E-1,8.101153564E-1,9.049092534E0
6.359186125E0,-9.087901611E0,4.179309082E-1,9.472302246E-1,9.146686123E0
6.369107125E0,-9.092991028E0,3.890409851E-1,1.119671631E0,9.169923843E0
6.379028125E0,-9.147477722E0,3.326083374E-1,1.272204437E0,9.241508595E0
6.388949125E0,-9.170080719E0,2.622546387E-1,1.452579346E0,9.288118466E0
6.398869125E0,-9.207951965E0,2.180964661E-1,1.614841919E0,9.351024537E0
6.408790125E0,-9.282347260E0,1.799258423E-1,1.786385193E0,9.454391361E0
6.418711125E0,-9.366023254E0,1.933978271E-1,2.004481659E0,9.580069992E0
6.428632125E0,-9.357041931E0,1.919009399E-1,2.248474274E0,9.625315383E0
6.438552125E0,-9.447603607E0,2.424957275E-1,2.486928406E0,9.772452660E0
6.448473125E0,-9.623637543E0,3.320095825E-1,2.775228882E0,1.002130357E1
6.458394125E0,-9.754016418E0,4.715194702E-1,2.986289978E0,1.021181153E1
6.468315125E0,-9.855804749E0,6.725514221E-1,3.085234222E0,1.034929383E1
6.478235125E0,-9.993967438E0,8.970845032E-1,3.101250916E0,1.050247128E1
6.488156125E0,-1.013632141E1,1.120120697E0,3.043620758E0,1.064252364E1
6.498077125E0,-1.035830978E1,1.295555878E0,2.907104645E0,1.083624954E1
6.507997125E0,-1.065005310E1,1.412462769E0,2.647394714E0,1.106469073E1
6.517918125E0,-1.093805420E1,1.485810242E0,2.353855133E0,1.128668666E1
6.527839125E0,-1.118983063E1,1.571282501E0,2.053429871E0,1.148467729E1
6.537760125E0,-1.134281250E1,1.641187134E0,1.865720215E0,1.161179584E1
6.547680125E0,-1.157677597E1,1.704804840E0,1.783840485E0,1.183681496E1
6.557601125E0,-1.178199921E1,1.804347839E0,1.749412079E0,1.204705852E1
6.567522125E0,-1.188019501E1,1.916464691E0,1.751058655E0,1.216051301E1
6.577443125E0,-1.195668594E1,1.996548157E0,1.801204376E0,1.225532050E1
6.587363125E0,-1.212733109E1,2.016756134E0,1.884730682E0,1.243751078E1
6.597284125E0,-1.235770203E1,1.970801697E0,1.958826599E0,1.266624887E1
6.607205125E0,-1.256337433E1,1.941612396E0,1.947599945E0,1.286084674E1
6.617126125E0,-1.279943344E1,1.846560059E0,1.790426788E0,1.305530193E1
6.627046125E0,-1.294044022E1,1.671124878E0,1.492695923E0,1.313300394E1
6.636967125E0,-1.305091049E1,1.469793549E0,1.103804626E0,1.317971708E1
6.646888125E0,-1.310794189E1,1.308429108E0,7.048841858E-1,1.319192894E1
6.656809125E0,-1.306587936E1,1.206491089E0,3.402424622E-1,1.312587480E1
6.666729125E0,-1.273791138E1,1.109492798E0,-7.334747314E-2,1.278634977E1
6.676650125E0,-1.212897766E1,9.403445435E-1,-4.685256958E-1,1.217439375E1
6.686571125E0,-1.118758530E1,6.477030945E-1,-7.963439941E-1,1.123457822E1
6.696491125E0,-1.055410263E1,2.636018372E-1,-1.017134857E0,1.060627793E1
6.706412125E0,-9.776320038E0,-1.841171265E-1,-1.074465637E0,9.836910542E0
6.716333125E0,-9.157057800E0,-6.007008362E-1,-1.024319916E0,9.233730576E0
6.726254125E0,-8.812773743E0,-9.330097961E-1,-8.291258240E-1,8.900726822E0
6.736174125E0,-8.867709503E0,-1.276994476E0,-5.782475281E-1,8.977825846E0
6.746095125E0,-9.244625702E0,-1.639241180E0,-3.866459656E-1,9.396792597E0
6.756016125E0,-9.801168365E0,-1.972597961E0,-1.483415222E-1,9.998802391E0
6.765937125E0,-1.026655060E1,-2.251767426E0,6.646179199E-2,1.051080087E1
6.775857125E0,-1.046593597E1,-2.485132141E0,2.363584900E-1,1.075953358E1
6.785778125E0,-1.040785675E1,-2.648442535E0,3.495231628E-1,1.074522668E1
6.795699125E0,-1.049602341E1,-2.843337250E0,4.942721558E-1,1.088555828E1
6.805620167E0,-1.030157776E1,-2.846780090E0,5.703140259E-1,1.070289303E1
6.815540167E0,-9.873168640E0,-2.664159851E0,5.498066711E-1,1.024106899E1
6.825461167E0,-9.298214264E0,-2.359094238E0,5.141807556E-1,9.606586073E0
6.835382167E0,-8.717571716E0,-2.036814423E0,4.343966675E-1,8.962888490E0
6.845303167E0,-8.286019135E0,-1.769021301E0,3.110531616E-1,8.478461153E0
6.855223167E0,-7.994275818E0,-1.568588104E0,2.017803955E-1,8.149210380E0
6.865144167E0,-7.817643127E0,-1.382974091E0,1.209484863E-1,7.939948988E0
6.875065167E0,-7.612569580E0,-1.166075134E0,3.562591553E-2,7.701442465E0
6.884986167E0,-7.519313507E0,-9.592053223E-1,5.343887329E-2,7.580435751E0
6.894906167E0,-7.508835297E0,-7.420069885E-1,1.402583313E-1,7.546711488E0
6.904827167E0,-7.536827087E0,-4.508624268E-1,2.478845215E-1,7.554368684E0
6.914748167E0,-7.622598724E0,-6.227050781E-2,4.803511047E-1,7.637972644E0
6.924668167E0,-7.918982391E0,3.447331238E-1,8.509803772E-1,7.972031776E0
6.934589167E0,-8.097261658E0,7.387138367E-1,1.337768097E0,8.240204364E0
6.944510167E0,-8.096213837E0,9.526190186E-1,1.897005157E0,8.369873957E0
6.954431167E0,-8.038433990E0,1.022074585E0,2.428849182E0,8.459336016E0
6.964351167E0,-7.993826752E0,9.207353210E-1,2.900069275E0,8.553328093E0
6.974272167E0,-7.713160400E0,8.469387817E-1,3.232827301E0,8.406028850E0
6.984193167E0,-7.559130707E0,8.473878479E-1,3.494483185E0,8.370778694E0
6.994114167E0,-7.621850281E0,8.485853577E-1,3.574117584E0,8.460911022E0
7.004034167E0,-7.523654480E0,9.252259827E-1,3.471281433E0,8.337338583E0
7.013955167E0,-7.467221832E0,9.536668396E-1,3.207380219E0,8.182675003E0
7.023876167E0,-7.622149658E0,7.970924377E-1,2.934048615E0,8.206166160E0
7.033797167E0,-8.046517181E0,6.101312256E-1,2.690505066E0,8.506322141E0
7.043717167E0,-8.423433380E0,5.436694336E-1,2.404449921E0,8.776741182E0
7.053638167E0,-8.685538330E0,5.622308350E-1,2.164199524E0,8.968747916E0
7.063559167E0,-8.807235260E0,6.370751953E-1,2.004781036E0,9.054965750E0
7.073480167E0,-8.905281372E0,7.701484680E-1,1.980681152E0,9.155340671E0
7.083400167E0,-9.035211182E0,9.421408081E-1,2.063608704E0,9.315640143E0
7.093321167E0,-9.186097412E0,1.168320465E0,2.273472290E0,9.535094893E0
7.103242167E0,-9.404642944E0,1.413211212E0,2.566413116E0,9.850428982E0
7.113162167E0,-9.814790039E0,1.654958496E0,2.906356201E0,1.036898729E1
7.123083167E0,-1.027598099E1,1.941313019E0,3.277434540E0,1.095929097E1
7.133004167E0,-1.069061874E1,2.135159912E0,3.670217743E0,1.150298810E1
7.142925167E0,-1.095407089E1,2.357597351E0,4.141138458E0,1.194566709E1
7.152845167E0,-1.128443390E1,2.401007080E0,4.791535950E0,1.249248175E1
7.162766167E0,-1.130748596E1,2.393672333E0,5.515879669E0,1.280678861E1
7.172687167E0,-1.115315689E1,2.275717621E0,6.231840820E0,1.297719690E1
7.182608167E0,-1.096604599E1,2.081870728E0,6.887926483E0,1.311609247E1
7.192528167E0,-1.071157516E1,1.855391693E0,7.504045258E0,1.320950476E1
7.202449167E0,-1.040082138E1,2.000290375E0,8.207432556E0,1.339926103E1
7.212370167E0,-1.053164932E1,2.148781586E0,8.890462189E0,1.394895042E1
7.222291167E0,-1.034169434E1,2.282453613E0,9.275611267E0,1.407825275E1
7.232211167E0,-1.007435028E1,2.271077271E0,9.173373871E0,1.381307763E1
7.242132167E0,-1.034723282E1,1.953587494E0,8.537496185E0,1.355620051E1
7.252053167E0,-1.099313965E1,1.385818176E0,7.481292572E0,1.336934366E1
7.261973167E0,-1.151016449E1,6.917115784E-1,5.939498749E0,1.297073617E1
7.271894167E0,-1.196851135E1,5.613327026E-2,4.043092346E0,1.263309189E1
7.281815167E0,-1.240260864E1,-2.466870117E-1,2.264041901E0,1.260997388E1
7.291736167E0,-1.263642242E1,-1.856140137E-1,1.004261627E0,1.267762461E1
7.301656167E0,-1.249811005E1,-1.523831177E-1,2.026785278E-1,1.250068214E1
7.311577167E0,-1.197599579E1,-2.857557678E-1,-3.144960022E-1,1.198353200E1
7.321498167E0,-1.127799728E1,-4.421804810E-1,-6.197113037E-1,1.130366261E1
7.331419167E0,-1.073672287E1,-7.032376099E-1,-7.864645386E-1,1.078843305E1
7.341339167E0,-9.812544708E0,-8.907975769E-1,-8.614585876E-1,9.890483551E0
7.351260167E0,-9.350755005E0,-1.000220032E0,-8.003855896E-1,9.438097073E0
7.361181167E0,-9.123826904E0,-1.016985168E0,-7.207511902E-1,9.208580699E0
7.371102167E0,-8.911867676E0,-8.848100281E-1,-6.810836792E-1,8.981544925E0
7.381022167E0,-8.644074554E0,-6.471043396E-1,-6.008505249E-1,8.689061531E0
7.390943167E0,-8.431067505E0,-3.665876770E-1,-4.379891968E-1,8.450391727E0
7.400864167E0,-8.378077698E0,-1.118174744E-1,-3.152444458E-1,8.384752120E0
7.410785167E0,-8.503965912E0,9.759704590E-2,-2.736309814E-1,8.508926802E0
7.420705167E0,-8.760233002E0,2.606080627E-1,-2.733316040E-1,8.768369801E0
7.430626167E0,-9.010213165E0,4.330494690E-1,-2.517764282E-1,9.024126800E0
7.440547167E0,-9.215286713E0,6.152206421E-1,-2.475851440E-1,9.239118142E0
7.450467167E0,-9.417665863E0,7.547305298E-1,-2.333647156E-1,9.450741112E0
7.460388167E0,-9.640252991E0,8.828640747E-1,-2.017803955E-1,9.682698076E0
7.470309167E0,-9.821226654E0,9.767189026E-1,-1.862127686E-1,9.871430899E0
7.480230167E0,-9.982591095E0,1.026116180E0,-1.615141296E-1,1.003648973E1
7.490150167E0,-1.007315277E1,1.062490540E0,-1.577719116E-1,1.013026085E1
7.500071167E0,-1.005968079E1,1.065783691E0,-1.056802368E-1,1.011653304E1
7.509992167E0,-9.907746735E0,1.069226532E0,-4.700225830E-2,9.965385088E0
7.519913167E0,-9.593699799E0,1.057700500E0,1.257385254E-2,9.651837352E0
7.529833167E0,-9.187594299E0,1.055455170E0,9.280700684E-2,9.248485701E0
7.539754167E0,-8.798104248E0,1.091679840E0,1.621128845E-1,8.867056097E0
7.549675167E0,-8.485254822E0,1.129700775E0,2.402503967E-1,8.563497737E0
7.559596167E0,-8.211923218E0,1.115180969E0,2.930905151E-1,8.292479338E0
7.569516167E0,-8.043673096E0,1.090632019E0,3.351530457E-1,8.124191199E0
7.579437167E0,-7.959697723E0,1.051263885E0,3.713777161E-1,8.037404122E0
7.589358167E0,-7.999664612E0,1.027912445E0,4.082011414E-1,8.075757925E0
7.599278167E0,-8.089178467E0,1.002016296E0,4.252656555E-1,8.162088936E0
7.609199167E0,-8.170160065E0,9.930349731E-1,3.775149536E-1,8.238941163E0
7.619120167E0,-8.270451508E0,9.331594849E-1,3.303630066E-1,8.329483446E0
7.629041167E0,-8.349636841E0,8.655001831E-1,2.752775574E-1,8.398887050E0
7.638961167E0,-8.404422913E0,8.084687805E-1,2.031275940E-1,8.445662027E0
7.648882167E0,-8.467142487E0,7.622149658E-1,1.576222229E-1,8.502841778E0
7.658803167E0,-8.549171906E0,7.005432129E-1,1.374142456E-1,8.578926724E0
7.668724167E0,-8.634644165E0,6.291416931E-1,1.405577087E-1,8.658675164E0
7.678644167E0,-8.737630005E0,5.721102905E-1,1.511856079E-1,8.757644967E0
7.688565167E0,-8.842412109E0,5.279521179E-1,1.555265808E-1,8.859524472E0
7.698486167E0,-8.972042542E0,4.764591980E-1,1.475930786E-1,8.985896975E0
7.708407167E0,-9.143286438E0,4.355941772E-1,1.731898499E-1,9.155294856E0
7.718327167E0,-9.326954498E0,3.724255371E-1,2.269281006E-1,9.337145032E0
7.728248167E0,-9.567354584E0,3.131488037E-1,2.736309814E-1,9.576388141E0
7.738169167E0,-9.798923035E0,2.318678284E-1,3.679348755E-1,9.808569284E0
7.748089167E0,-1.001926483E1,2.007325745E-1,5.463638306E-1,1.003615837E1
7.758010167E0,-1.035037628E1,2.104623413E-1,7.457492065E-1,1.037934128E1
7.767931167E0,-1.059975769E1,2.715353394E-1,9.613009644E-1,1.064672222E1
7.777852167E0,-1.083656525E1,3.585044861E-1,1.199605408E0,1.090865367E1
7.787772167E0,-1.101619171E1,4.041595459E-1,1.486259308E0,1.112334444E1
7.797693167E0,-1.117501144E1,4.249662781E-1,1.855092316E0,1.133590952E1
7.807613625E0,-1.171284302E1,5.484594727E-1,2.400108948E0,1.196879369E1
7.817534625E0,-1.170461014E1,6.803352356E-1,3.060984650E0,1.211735869E1
7.827454625E0,-1.157902130E1,7.785310364E-1,3.411705322E0,1.209626298E1
7.837375625E0,-1.190354645E1,8.756790161E-1,3.624412994E0,1.247387676E1
7.847296625E0,-1.214634155E1,1.055305481E0,4.249812469E0,1.291155253E1
7.857217625E0,-1.239183105E1,1.367107086E0,5.710325317E0,1.371255898E1
7.867137625E0,-1.281784515E1,1.941313019E0,8.215515747E0,1.534798194E1
7.877058625E0,-1.245859222E1,2.481689301E0,8.530760193E0,1.530193359E1
7.886979625E0,-1.235246292E1,2.580184479E0,5.635630646E0,1.382031204E1
7.896899625E0,-1.300196228E1,2.549498291E0,3.256627808E0,1.364392133E1
7.906820625E0,-1.360790222E1,2.453098755E0,1.909579010E0,1.395848088E1
7.916741625E0,-1.402927597E1,2.222877502E0,9.065148926E-1,1.423318439E1
7.926662625E0,-1.415770889E1,1.995350647E0,1.384620667E-1,1.429829770E1
7.936582625E0,-1.397808243E1,1.683998108E0,-3.338058472E-1,1.408311274E1
7.946503625E0,-1.328891556E1,1.405128021E0,-5.511538696E-1,1.337435726E1
7.956424625E0,-1.259974869E1,1.234033813E0,-6.842271423E-1,1.267851226E1
7.966345625E0,-1.172945847E1,1.078507233E0,-8.018824768E-1,1.180620130E1
7.976265625E0,-1.081081879E1,8.373587036E-1,-9.400451660E-1,1.088387143E1
7.986186625E0,-1.043719574E1,4.760101318E-1,-1.073417816E0,1.050304082E1
7.996107625E0,-9.936337280E0,3.353027344E-2,-1.160087585E0,1.000388555E1
8.006027625E0,-9.597292328E0,-4.516108704E-1,-1.113235016E0,9.672190269E0
8.015948625E0,-9.374405823E0,-9.084608459E-1,-8.963360596E-1,9.460877548E0
8.025869625E0,-9.308542786E0,-1.365460510E0,-6.445596313E-1,9.430212528E0
8.035790625E0,-9.475296021E0,-1.912273407E0,-4.272116089E-1,9.675770461E0
8.045710625E0,-9.623787231E0,-2.342029724E0,-1.839674377E-1,9.906373096E0
8.055631625E0,-1.008408005E1,-2.829715576E0,7.484436035E-3,1.047358662E1
8.065552625E0,-1.018961060E1,-3.166814575E0,1.357676697E-1,1.067123758E1
8.075473625E0,-9.999356232E0,-3.308420105E0,1.713935852E-1,1.053385705E1
8.085393625E0,-9.714498596E0,-3.319048004E0,1.122665405E-1,1.026645832E1
8.095314625E0,-9.489666138E0,-3.280278625E0,5.628295898E-2,1.004077482E1
8.105235625E0,-9.220376129E0,-3.109783173E0,9.624984741E-2,9.731153651E0
8.115156625E0,-8.873397675E0,-2.794538727E0,6.361770630E-2,9.303261804E0
8.125076625E0,-8.681646423E0,-2.416275330E0,3.547622681E-2,9.011694050E0
8.134997625E0,-8.542735291E0,-2.067350922E0,1.960922241E-2,8.789348702E0
8.144918625E0,-8.396190033E0,-1.788181458E0,-8.083190918E-2,8.584878205E0
8.154839625E0,-8.287965088E0,-1.579066315E0,-1.851649475E-1,8.439081809E0
8.164759625E0,-8.172255707E0,-1.366208954E0,-2.917433167E-1,8.290802398E0
8.174680625E0,-8.029302979E0,-1.140777740E0,-3.951782227E-1,8.119559471E0
8.184601625E0,-7.933951263E0,-9.202862549E-1,-4.689747620E-1,8.000902872E0
8.194521625E0,-7.973918152E0,-7.220983887E-1,-5.069956970E-1,8.022583213E0
8.204442625E0,-8.077951813E0,-5.493576050E-1,-4.894821167E-1,8.111392729E0
8.214363625E0,-8.092621307E0,-3.122506714E-1,-4.345463562E-1,8.110292883E0
8.224284625E0,-8.134683838E0,-8.217910767E-2,-3.472778320E-1,8.142507995E0
8.234204625E0,-8.160280609E0,7.529342651E-2,-1.760339355E-1,8.162526365E0
8.244125625E0,-8.106392670E0,2.812651062E-1,2.230361938E-2,8.111301352E0
8.254046625E0,-8.104297028E0,4.540058899E-1,2.254312134E-1,8.120133674E0
8.263966625E0,-8.151598663E0,6.156697083E-1,4.149371338E-1,8.185339503E0
8.273887625E0,-8.140821075E0,7.367678833E-1,5.923182678E-1,8.195525342E0
8.283808625E0,-8.145760803E0,8.500822449E-1,7.595205688E-1,8.225140144E0
8.293729625E0,-8.159981232E0,1.008901978E0,9.178912354E-1,8.273191719E0
8.303649625E0,-8.150850220E0,1.237476654E0,1.140927429E0,8.322825432E0
8.313570625E0,-8.191864929E0,1.450932770E0,1.400337982E0,8.436397536E0
8.323491625E0,-8.195158081E0,1.570534058E0,1.715133362E0,8.518736740E0
8.333412625E0,-8.212222595E0,1.636397095E0,2.122286682E0,8.638431349E0
8.343332625E0,-8.268056488E0,1.657503204E0,2.469564514E0,8.786741367E0
8.353253625E0,-8.443940735E0,1.685045929E0,2.827021179E0,9.062646615E0
8.363174625E0,-8.732839966E0,1.687141571E0,3.193010101E0,9.450092807E0
8.373095625E0,-8.943302307E0,1.696721649E0,3.564986572E0,9.776024231E0
8.383015625E0,-9.038803711E0,1.755699005E0,3.997736664E0,1.003814475E1
8.392936625E0,-9.132359161E0,1.943857727E0,4.609813843E0,1.041292228E1
8.402857625E0,-9.358089752E0,2.312690735E0,5.381159821E0,1.103989417E1
8.412777625E0,-9.554780731E0,2.653232574E0,6.164929962E0,1.167646519E1
8.422698625E0,-9.615853729E0,3.102149048E0,7.057823181E0,1.232480587E1
8.432619625E0,-1.016715729E1,3.386407928E0,7.942483521E0,1.333873646E1
8.442540625E0,-1.065738785E1,3.476520538E0,8.451275482E0,1.403888058E1
8.452460625E0,-1.097757202E1,3.257675629E0,8.296497345E0,1.414041747E1
8.462381625E0,-1.107277405E1,2.835553436E0,7.565118256E0,1.370684875E1
8.472302625E0,-1.098281113E1,2.571203156E0,6.714886322E0,1.312718265E1
8.482223625E0,-1.102607117E1,2.434986420E0,6.105353851E0,1.283661754E1
8.492143625E0,-1.120943985E1,2.484084320E0,5.837111664E0,1.287998794E1
8.502064625E0,-1.136227203E1,2.642454987E0,6.020779724E0,1.312758861E1
8.511985625E0,-1.115944382E1,2.778222656E0,6.470594330E0,1.319546507E1
8.521905625E0,-1.098819992E1,2.648592224E0,6.564598846E0,1.307094244E1
8.531826625E0,-1.128563141E1,2.128723297E0,5.545518036E0,1.275341952E1
8.541747625E0,-1.185325104E1,1.258582764E0,3.588338013E0,1.244828343E1
8.551668625E0,-1.264405655E1,5.110372925E-1,1.647024994E0,1.276111345E1
8.561588625E0,-1.292577072E1,3.682342529E-1,3.209326172E-1,1.293499683E1
8.571509625E0,-1.235171448E1,5.146298218E-1,-2.689906311E-1,1.236535686E1
8.581430625E0,-1.250754044E1,4.526586914E-1,-5.683680725E-1,1.252862761E1
8.591351625E0,-1.200997513E1,1.757345581E-1,-8.087681580E-1,1.203845884E1
8.601271625E0,-1.086859863E1,-1.152603149E-1,-8.313711548E-1,1.090095864E1
8.611192625E0,-1.031504974E1,-4.992118835E-1,-7.849676514E-1,1.035691257E1
8.621113625E0,-1.018961060E1,-9.008267212E-1,-7.801776123E-1,1.025906087E1
8.631034625E0,-1.024559418E1,-1.136736145E0,-7.746391296E-1,1.033752557E1
8.640954625E0,-1.012539413E1,-1.143472137E0,-7.720944214E-1,1.021896593E1
8.650875625E0,-9.716444550E0,-1.032552795E0,-6.653663635E-1,9.793782332E0
8.660796625E0,-9.414522400E0,-9.114546204E-1,-4.635859680E-1,9.469894059E0
8.670716625E0,-9.370962982E0,-8.143066406E-1,-2.481838989E-1,9.409550349E0
8.680637625E0,-9.450896759E0,-7.252418518E-1,-9.325607300E-2,9.479141416E0
8.690558625E0,-9.592202911E0,-6.021977234E-1,-7.559280396E-2,9.611384555E0
8.700479625E0,-9.722132721E0,-3.767665100E-1,-7.903564453E-2,9.729751501E0
8.710399625E0,-9.940229187E0,-1.651066589E-1,-8.008346558E-2,9.941922845E0
8.720320625E0,-1.015623001E1,-2.260299683E-2,-6.511459351E-2,1.015646389E1
8.730241625E0,-1.025233017E1,1.164578247E-1,-3.817062378E-2,1.025306263E1
8.740161625E0,-1.027373566E1,2.430944824E-1,2.245330811E-2,1.027663580E1
8.750082625E0,-1.017030075E1,3.149450684E-1,6.840774536E-2,1.017540601E1
8.760003625E0,-9.840536499E0,3.505709839E-1,1.130149841E-1,9.847427633E0
8.769924625E0,-9.418264618E0,3.683839417E-1,1.666035461E-1,9.426938627E0
8.779844625E0,-9.019194489E0,3.781137085E-1,2.514770508E-1,9.030619021E0
8.789765625E0,-8.586145020E0,3.848497009E-1,3.195854187E-1,8.600705229E0
8.799686625E0,-8.202792206E0,4.197271729E-1,4.129911804E-1,8.223900084E0
8.809608167E0,-7.882158966E0,4.933740234E-1,4.954696655E-1,7.913111783E0
8.819528167E0,-7.674391022E0,5.557942200E-1,5.625302124E-1,7.715025924E0
8.829449167E0,-7.497309265E0,5.875282288E-1,6.289920044E-1,7.546553291E0
8.839370167E0,-7.443571014E0,6.149212646E-1,6.810836792E-1,7.499916839E0
8.849290167E0,-7.525151367E0,6.499484253E-1,6.968009949E-1,7.585240120E0
8.859211167E0,-7.655679932E0,6.628216553E-1,6.716532898E-1,7.713616915E0
8.869132167E0,-7.854017487E0,6.915618896E-1,6.351292419E-1,7.909945492E0
8.879053167E0,-8.147407379E0,7.240443420E-1,5.902226257E-1,8.200783497E0
8.888973167E0,-8.448431396E0,7.505392456E-1,5.804928589E-1,8.501545399E0
8.898894167E0,-8.677006073E0,7.878117371E-1,5.984555054E-1,8.733225676E0
8.908815167E0,-8.872649231E0,7.897576904E-1,6.210585022E-1,8.929352454E0
8.918736167E0,-8.879534912E0,7.714956665E-1,6.313870239E-1,8.935322904E0
8.928656167E0,-8.812025299E0,7.641609192E-1,6.044430542E-1,8.865725192E0
8.938577167E0,-8.753946075E0,7.622149658E-1,5.845344543E-1,8.806487613E0
8.948498167E0,-8.801547089E0,7.439529419E-1,6.069877625E-1,8.853763679E0
8.958418167E0,-8.906179504E0,7.156617737E-1,6.433621216E-1,8.958019868E0
8.968339167E0,-8.960217133E0,6.969506836E-1,7.382647705E-1,9.017553226E0
8.978260167E0,-9.026978302E0,6.718029785E-1,8.607101440E-1,9.092770670E0
8.988181167E0,-9.160949707E0,6.505471802E-1,9.791139221E-1,9.236063839E0
8.998101167E0,-9.390123138E0,6.463558960E-1,1.132395172E0,9.480216629E0
9.008022167E0,-9.658365326E0,6.644682312E-1,1.298849030E0,9.767934664E0
9.017943167E0,-9.943522339E0,7.165599060E-1,1.443598022E0,1.007328496E1
9.027864167E0,-1.024604324E1,8.069718933E-1,1.700314178E0,1.041746966E1
9.037784167E0,-1.058374100E1,9.285191345E-1,2.014660492E0,1.081372175E1
9.047705167E0,-1.084644470E1,1.062041473E0,2.309547272E0,1.114034575E1
9.057626167E0,-1.114402588E1,1.165626068E0,2.648442535E0,1.151356786E1
9.067547167E0,-1.148471741E1,1.244512024E0,3.039279785E0,1.194507286E1
9.077467167E0,-1.171598648E1,1.361269226E0,3.529510345E0,1.231157327E1
9.087388167E0,-1.179472275E1,1.425934753E0,3.903432770E0,1.250542130E1
9.097309167E0,-1.182630707E1,1.481319580E0,4.352349243E0,1.268852988E1
9.107229167E0,-1.172990753E1,1.609752502E0,4.736749878E0,1.275220895E1
9.117150167E0,-1.150327881E1,1.764680328E0,4.942422180E0,1.264385452E1
9.127071167E0,-1.133278336E1,1.900298309E0,4.976700897E0,1.252240648E1
9.136992167E0,-1.117336487E1,2.035317535E0,4.733157349E0,1.230403911E1
9.146912167E0,-1.132574799E1,2.101030884E0,4.185446320E0,1.225580920E1
9.156833167E0,-1.190115143E1,2.101330261E0,3.446582794E0,1.256709701E1
9.166754167E0,-1.256472153E1,2.043700104E0,2.597698059E0,1.299218890E1
9.176674167E0,-1.303369629E1,1.851649475E0,1.822160797E0,1.329007580E1
9.186595167E0,-1.312201263E1,1.475481720E0,1.180744629E0,1.325739114E1
9.196516167E0,-1.282667679E1,1.137933655E0,6.471043396E-1,1.289330347E1
9.206437167E0,-1.224872864E1,1.000818787E0,1.377136230E-1,1.229031963E1
9.216357167E0,-1.175954590E1,9.523196411E-1,-2.269281006E-1,1.180022579E1
9.226278167E0,-1.142948227E1,8.354127502E-1,-5.448669434E-1,1.147291852E1
9.236199167E0,-1.127545258E1,6.081852722E-1,-8.414002991E-1,1.132314773E1
9.246120167E0,-1.118848343E1,2.252815247E-1,-1.073717194E0,1.124214311E1
9.256040167E0,-1.125015518E1,-3.189866638E-1,-1.217568054E0,1.132034523E1
9.265961167E0,-1.098116455E1,-8.060737610E-1,-1.111438751E0,1.106666282E1
9.275882167E0,-1.090377548E1,-1.289119263E0,-7.526348877E-1,1.100548079E1
9.285802167E0,-1.098775085E1,-1.709894257E0,-3.908372498E-1,1.112686663E1
9.295723167E0,-1.119282440E1,-2.136656799E0,-9.131011963E-2,1.139530420E1
9.305644167E0,-1.120689514E1,-2.447560272E0,2.115101624E-1,1.147300251E1
9.315565167E0,-1.095272369E1,-2.691403198E0,4.805007935E-1,1.128878596E1
9.325485167E0,-1.046713348E1,-2.862048340E0,6.033952332E-1,1.086813185E1
9.335406167E0,-9.920170898E0,-2.902763672E0,6.487509155E-1,1.035648132E1
9.345327167E0,-9.377698975E0,-2.797682190E0,6.441105652E-1,9.807300450E0
9.355248167E0,-8.739426270E0,-2.546803894E0,5.595364380E-1,9.120135011E0
9.365168167E0,-8.194709015E0,-2.240840149E0,3.882925415E-1,8.504433638E0
9.375089167E0,-7.899223480E0,-1.986219635E0,2.255809021E-1,8.148232126E0
9.385010167E0,-7.736062775E0,-1.775607605E0,7.888595581E-2,7.937611266E0
9.394930167E0,-7.655230865E0,-1.553020477E0,-5.448669434E-2,7.811363582E0
9.404851167E0,-7.572153625E0,-1.351988525E0,-1.474433899E-1,7.693316778E0
9.414772167E0,-7.525151367E0,-1.137484589E0,-1.797761536E-1,7.612758617E0
9.424693167E0,-7.572602692E0,-9.375004578E-1,-1.935475159E-1,7.632868352E0
9.434613167E0,-7.683072968E0,-7.342231750E-1,-1.679507446E-1,7.719902936E0
9.444534167E0,-7.862549744E0,-5.099894714E-1,-1.314266968E-1,7.880168190E0
9.454455167E0,-8.107590179E0,-2.891986084E-1,-8.247848511E-2,8.113165662E0
9.464376167E0,-8.270601196E0,-5.164260864E-2,-4.041595459E-2,8.270861174E0
9.474296167E0,-8.334667969E0,1.811233521E-1,4.086502075E-2,8.336735918E0
9.484217167E0,-8.350834351E0,4.592449951E-1,1.419049072E-1,8.364656438E0
9.494138167E0,-8.304730225E0,7.288343811E-1,2.826123047E-1,8.341439526E0
9.504058167E0,-8.281827850E0,9.789642334E-1,4.846920776E-1,8.353560314E0
9.513979167E0,-8.261021118E0,1.208437042E0,7.195536804E-1,8.379889468E0
9.523900167E0,-8.323740692E0,1.426383820E0,9.825567627E-1,8.502037856E0
9.533821167E0,-8.436007233E0,1.624871063E0,1.319805450E0,8.691853107E0
9.543741167E0,-8.486152954E0,1.789079590E0,1.854343872E0,8.868719690E0
9.553662167E0,-8.423583069E0,1.891766052E0,2.335144043E0,8.943625004E0
9.563583167E0,-8.231981506E0,1.826801147E0,2.692001953E0,8.851530742E0
9.573503167E0,-8.131989441E0,1.605261841E0,2.944676514E0,8.796433233E0
9.583424167E0,-8.379125519E0,1.388811951E0,3.128494263E0,9.051299324E0
9.593345167E0,-8.780740356E0,1.253942413E0,3.106190643E0,9.397988779E0
9.603266167E0,-9.100774841E0,1.216669922E0,2.988684998E0,9.655911476E0
9.613186167E0,-9.227561188E0,1.252595215E0,3.025358734E0,9.791306129E0
9.623107167E0,-9.268725586E0,1.335073700E0,3.261417847E0,9.916074936E0
9.633028167E0,-9.398056641E0,1.489552460E0,3.694467316E0,1.020741514E1
9.642949167E0,-9.491462402E0,1.707648926E0,4.277953949E0,1.055010964E1
9.652869167E0,-9.703122253E0,1.944606171E0,4.803660736E0,1.100032868E1
9.662790167E0,-1.006641678E1,2.102228394E0,5.214107208E0,1.152991869E1
9.672711167E0,-1.027643005E1,2.322869568E0,5.666616211E0,1.196291256E1
9.682631167E0,-1.061712158E1,2.589165802E0,6.259533234E0,1.259399883E1
9.692552167E0,-1.108579697E1,2.592758331E0,6.732250214E0,1.322650684E1
9.702473167E0,-1.095886093E1,2.517315216E0,6.922055511E0,1.320410396E1
9.712394167E0,-1.067250641E1,2.409090271E0,6.944059753E0,1.295862936E1
9.722314167E0,-1.054317535E1,2.281555481E0,6.931186523E0,1.282206647E1
9.732235167E0,-1.052955368E1,2.116299133E0,6.985523529E0,1.281201630E1
9.742156167E0,-1.051473450E1,2.080822906E0,7.295079803E0,1.296563361E1
9.752077167E0,-1.039887543E1,2.239642639E0,7.858957214E0,1.322557438E1
9.761997167E0,-1.028062134E1,2.389031982E0,8.391250305E0,1.348375803E1
9.771918167E0,-1.040995239E1,2.199675751E0,8.047415314E0,1.334041137E1
9.781839167E0,-1.108400070E1,1.563947754E0,6.280789032E0,1.283547097E1
9.791759167E0,-1.204260727E1,5.182223511E-1,3.797602844E0,1.263782939E1
9.801680500E0,-1.285152512E1,-1.725910950E-1,1.540746002E0,1.294470485E1
9.811601500E0,-1.310390030E1,-2.155517578E-1,1.445993042E-1,1.310647071E1
9.821522500E0,-1.283895126E1,-1.652563477E-1,-4.855902100E-1,1.284919363E1
9.831442500E0,-1.244092896E1,-2.213896179E-1,-8.181985474E-1,1.246977047E1
9.841363500E0,-1.178484329E1,-3.990701294E-1,-9.126521301E-1,1.182686443E1
9.851284500E0,-1.098385895E1,-6.954537964E-1,-8.518785095E-1,1.103877305E1
9.861204500E0,-1.049871780E1,-1.017284546E0,-8.126600647E-1,1.057914740E1
9.871125500E0,-1.024858795E1,-1.188977509E0,-7.508386230E-1,1.034461121E1
9.881046500E0,-1.007988876E1,-1.179547119E0,-7.268884277E-1,1.017466735E1
9.890967500E0,-9.870174866E0,-1.032702484E0,-6.878196716E-1,9.947860182E0
9.900887500E0,-9.527687073E0,-8.048762512E-1,-5.628295898E-1,9.578174350E0
9.910808500E0,-9.183103638E0,-6.014492798E-1,-4.293072510E-1,9.212786678E0
9.920729500E0,-8.852590942E0,-3.107537842E-1,-3.192860413E-1,8.863795907E0
9.930649500E0,-8.726403351E0,1.392105103E-2,-2.725831604E-1,8.730670697E0
9.940570500E0,-8.896150360E0,3.059637451E-1,-2.418969727E-1,8.904696468E0
9.950491500E0,-9.220675507E0,5.565426636E-1,-1.737886047E-1,9.239090811E0
9.960412500E0,-9.612410889E0,7.671546936E-1,-8.846603394E-2,9.643380925E0
9.970332500E0,-9.978399811E0,9.283694458E-1,2.290237427E-2,1.002151970E1
9.980253500E0,-1.022239243E1,1.034498749E0,1.170565796E-1,1.027527113E1
9.990174500E0,-1.025622208E1,1.075962524E0,1.941462708E-1,1.031433369E1
1.000009550E1,-1.006926086E1,1.087787933E0,2.369572449E-1,1.013061921E1
1.001001550E1,-9.760303345E0,1.072369995E0,2.510279846E-1,9.822245865E0
1.001993650E1,-9.462572479E0,1.026265869E0,2.770738220E-1,9.522093754E0
1.002985750E1,-9.095386047E0,9.698332214E-1,3.046165466E-1,9.152016995E0
1.003977750E1,-8.668473816E0,9.279203796E-1,3.433859253E-1,8.724757213E0
1.004969850E1,-8.320896606E0,9.235794067E-1,4.080514526E-1,8.381934457E0
1.005961950E1,-8.034093018E0,9.306147766E-1,4.694238281E-1,8.101422913E0
1.006954050E1,-7.855963440E0,9.505233765E-1,5.498066711E-1,7.932335320E0
1.007946050E1,-7.840096436E0,9.779164124E-1,6.180647278E-1,7.924988116E0
1.008938150E1,-7.931556244E0,1.013542328E0,6.758445740E-1,8.024563439E0
1.009930250E1,-8.122858429E0,1.049617310E0,7.334747314E-1,8.223169142E0
1.010922350E1,-8.293653259E0,1.072968750E0,7.566764832E-1,8.396934299E0
1.011914350E1,-8.383466492E0,1.079105988E0,7.596702576E-1,8.486700127E0
1.012906450E1,-8.479117584E0,1.015338593E0,7.554789734E-1,8.573044730E0
1.013898550E1,-8.491541748E0,9.629475403E-1,7.173083496E-1,8.576017753E0
1.014890550E1,-8.465645599E0,8.677455139E-1,6.950047302E-1,8.538335275E0
1.015882650E1,-8.389004974E0,7.560777283E-1,6.923103333E-1,8.451411219E0
1.016874750E1,-8.348139954E0,6.535409546E-1,7.036866760E-1,8.403197689E0
1.017866850E1,-8.432115326E0,5.110372925E-1,7.246430969E-1,8.478610476E0
1.018858850E1,-8.538394318E0,3.611988831E-1,7.822732544E-1,8.581759353E0
1.019850950E1,-8.724307709E0,2.344125366E-1,8.327183533E-1,8.767092682E0
1.020843050E1,-8.994346161E0,9.714797974E-2,8.795709229E-1,9.037773266E0
1.021835050E1,-9.145980835E0,-4.191284180E-3,8.897497559E-1,9.189158701E0
1.022827150E1,-9.245374146E0,-6.691085815E-2,9.372010803E-1,9.292995535E0
1.023819250E1,-9.330846405E0,-1.441502380E-1,1.016087036E0,9.387113869E0
1.024811350E1,-9.381590881E0,-2.237846375E-1,1.079704742E0,9.446167972E0
1.025803350E1,-9.557175751E0,-3.110531616E-1,1.151405640E0,9.631308185E0
1.026795450E1,-9.795779572E0,-4.164340210E-1,1.254241791E0,9.884525137E0
1.027787550E1,-1.015084122E1,-5.191204834E-1,1.397942963E0,1.025979084E1
1.028779550E1,-1.050530411E1,-5.755531311E-1,1.577719116E0,1.063869698E1
1.029771650E1,-1.090512268E1,-5.716612244E-1,1.839375000E0,1.107392422E1
1.030763750E1,-1.125838806E1,-5.025050354E-1,2.158661041E0,1.147447735E1
1.031755850E1,-1.158036850E1,-3.623963928E-1,2.504741364E0,1.185369120E1
1.032747850E1,-1.191656937E1,-1.073268127E-1,2.918331299E0,1.226918099E1
1.033739950E1,-1.220576797E1,1.978884888E-1,3.415746918E0,1.267624782E1
1.034732050E1,-1.236578522E1,5.480104065E-1,3.916755066E0,1.298283211E1
1.035724150E1,-1.238150253E1,9.654922485E-1,4.415218506E0,1.318058932E1
1.036716150E1,-1.218556000E1,1.447040863E0,4.934638367E0,1.322620337E1
1.037708250E1,-1.195608719E1,1.902693329E0,5.239853668E0,1.319182812E1
1.038700350E1,-1.166569107E1,2.261497192E0,5.296136627E0,1.300968028E1
1.039692350E1,-1.132095795E1,2.507884827E0,4.999004517E0,1.262709869E1
1.040684450E1,-1.130539032E1,2.637964325E0,4.346960449E0,1.239624020E1
1.041676550E1,-1.154219788E1,2.705324249E0,3.589984589E0,1.238665009E1
1.042668650E1,-1.187705154E1,2.557581482E0,2.725532227E0,1.245126911E1
1.043660650E1,-1.224408829E1,2.212848358E0,1.917811890E0,1.258937641E1
1.044652750E1,-1.240081238E1,1.775607605E0,1.235830078E0,1.258809779E1
1.045644850E1,-1.240665024E1,1.440903625E0,5.644761658E-1,1.250279196E1
1.046636850E1,-1.226519440E1,1.230590973E0,-8.577163696E-2,1.232707202E1
1.047628950E1,-1.197045731E1,1.060544586E0,-5.499563599E-1,1.202992331E1
1.048621050E1,-1.149235153E1,9.178912354E-1,-8.485853577E-1,1.156013690E1
1.049613150E1,-1.154803574E1,7.265890503E-1,-1.026116180E0,1.161628062E1
1.050605150E1,-1.182361267E1,3.882925415E-1,-1.137035522E0,1.188450409E1
1.051597250E1,-1.133323242E1,-1.002914429E-2,-1.130149841E0,1.138944671E1
1.052589350E1,-1.108804230E1,-5.101391602E-1,-9.921368408E-1,1.114402349E1
1.053581350E1,-1.084883972E1,-1.031654663E0,-6.963519287E-1,1.092000644E1
1.054573450E1,-1.061562469E1,-1.473535767E0,-2.941383362E-1,1.072144173E1
1.055565550E1,-1.044108765E1,-1.842069397E0,1.429527283E-1,1.060329979E1
1.056557650E1,-1.031804352E1,-2.087259521E0,5.358856201E-1,1.054067587E1
1.057549650E1,-1.046743286E1,-2.352957001E0,8.705895996E-1,1.076389723E1
1.058541750E1,-1.039049286E1,-2.520308990E0,1.063837738E0,1.074458236E1
1.059533850E1,-1.014500336E1,-2.633623352E0,1.145867157E0,1.054372214E1
1.060525950E1,-9.867031403E0,-2.698887634E0,1.109193420E0,1.028944183E1
1.061517950E1,-9.462572479E0,-2.633773041E0,9.611512756E-1,9.869186903E0
1.062510050E1,-8.950337677E0,-2.485281830E0,7.354206848E-1,9.318047751E0
1.063502150E1,-8.391849060E0,-2.244582367E0,4.840933228E-1,8.700323384E0
1.064494150E1,-8.015082550E0,-1.991159363E0,2.480342102E-1,8.262432140E0
1.065486250E1,-7.833659821E0,-1.775158539E0,1.038839722E-1,8.032945033E0
1.066478350E1,-7.645501099E0,-1.565893707E0,1.242416382E-2,7.804220942E0
1.067470450E1,-7.483837280E0,-1.337468719E0,-4.819976807E-2,7.602563136E0
1.068462450E1,-7.417974243E0,-1.138233032E0,-7.080276489E-2,7.505126870E0
1.069454550E1,-7.409891052E0,-9.413923645E-1,-1.188528442E-1,7.470396977E0
1.070446650E1,-7.501650238E0,-7.325765991E-1,-1.811233521E-1,7.539511286E0
1.071438650E1,-7.638465729E0,-4.800517273E-1,-1.327738953E-1,7.654687274E0
1.072430750E1,-7.753726044E0,-2.163002014E-1,-8.173004150E-2,7.757173012E0
1.073422850E1,-7.888296204E0,4.909790039E-2,-3.008743286E-2,7.888506377E0
1.074414950E1,-8.052953796E0,3.043171692E-1,8.771759033E-2,8.059179125E0
1.075406950E1,-8.276588745E0,5.328918457E-1,2.296224976E-1,8.296904330E0
1.076399050E1,-8.397537231E0,7.439529419E-1,3.607498169E-1,8.438141855E0
1.077391150E1,-8.418643341E0,9.005273438E-1,4.948709106E-1,8.481120352E0
1.078383150E1,-8.399932251E0,1.013991394E0,6.646179199E-1,8.486975748E0
1.079375250E1,-8.337212677E0,1.123713226E0,9.201365662E-1,8.462771292E0
1.080367279E1,-8.327482910E0,1.245410156E0,1.266216888E0,8.514770889E0
1.081359379E1,-8.341853027E0,1.341510315E0,1.641037445E0,8.606925453E0
1.082351379E1,-8.308472443E0,1.376088409E0,2.102078705E0,8.680038509E0
1.083343479E1,-8.181985474E0,1.234333191E0,2.736160126E0,8.715218698E0
1.084335579E1,-8.256829834E0,9.506730652E-1,3.292852478E0,8.939904677E0
1.085327579E1,-8.471184082E0,7.104226685E-1,3.755690002E0,9.293592821E0
1.086319679E1,-8.650660858E0,5.924679565E-1,4.196822662E0,9.633185975E0
1.087311779E1,-8.732241211E0,5.212161255E-1,4.693040771E0,9.927151379E0
1.088303879E1,-8.706045685E0,5.354365540E-1,5.164560242E0,1.013679467E1
1.089295879E1,-8.663534088E0,6.496490479E-1,5.595963135E0,1.033410229E1
1.090287979E1,-8.665480042E0,8.303233337E-1,5.993237000E0,1.056876866E1
1.091280079E1,-8.765023041E0,1.079255676E0,6.414311371E0,1.091484366E1
1.092272179E1,-8.979976044E0,1.328637085E0,6.667884064E0,1.126347744E1
1.093264179E1,-9.474547577E0,1.592987366E0,6.762187958E0,1.174869552E1
1.094256279E1,-1.005474106E1,1.790277100E0,6.654262390E0,1.218942648E1
1.095248379E1,-1.043539948E1,2.153571625E0,6.473588104E0,1.246766922E1
1.096240379E1,-1.107187592E1,2.102078705E0,6.255341949E0,1.288931628E1
1.097232479E1,-1.110106522E1,1.978735199E0,5.944588165E0,1.274704555E1
1.098224579E1,-1.093281509E1,1.924398193E0,5.656736755E0,1.245906999E1
1.099216679E1,-1.090512268E1,1.857487335E0,5.446424103E0,1.233026745E1
1.100208679E1,-1.100271973E1,1.820514221E0,5.260959778E0,1.233092905E1
1.101200779E1,-1.118848343E1,1.853296051E0,5.133424988E0,1.244865132E1
1.102192879E1,-1.136481674E1,1.968107300E0,5.147046661E0,1.263030464E1
1.103184879E1,-1.147468826E1,2.105371857E0,5.356910248E0,1.283734976E1
1.104176979E1,-1.165700912E1,2.211052094E0,5.676645355E0,1.315290521E1
1.105169079E1,-1.177137131E1,2.135010223E0,5.855074310E0,1.331935983E1
1.106161179E1,-1.184456909E1,1.944007416E0,5.647156677E0,1.326511818E1
1.107153179E1,-1.185025726E1,1.614991608E0,4.979994049E0,1.295519725E1
1.108145279E1,-1.178903458E1,1.086889801E0,3.841611328E0,1.244671215E1
1.109137379E1,-1.171329208E1,4.650828552E-1,2.473306732E0,1.198059930E1
1.110129379E1,-1.182870209E1,2.868035889E-1,1.375489655E0,1.191186052E1
1.111121479E1,-1.163201111E1,3.085084534E-1,6.459068298E-1,1.165401457E1
1.112113579E1,-1.130284561E1,1.107696533E-1,2.652484131E-1,1.130650015E1
1.113105679E1,-1.072639435E1,-5.388793945E-2,5.658233643E-2,1.072667894E1
1.114097679E1,-1.004665787E1,-1.437011719E-1,-9.969268799E-2,1.004818008E1
1.115089779E1,-9.510772247E0,-2.860551453E-1,-1.454974365E-1,9.516185464E0
1.116081879E1,-9.071884918E0,-4.023632813E-1,-1.191522217E-1,9.081585183E0
1.117073879E1,-8.628806305E0,-3.598516846E-1,-8.187973022E-2,8.636694725E0
1.118065979E1,-8.298293610E0,-2.016307068E-1,-7.679031372E-2,8.301098031E0
1.119058079E1,-8.149353333E0,-1.945953369E-2,-3.158432007E-2,8.149437771E0
1.120050179E1,-8.053253174E0,1.625619507E-1,1.871109009E-2,8.054915467E0
1.121042179E1,-8.106542358E0,3.059637451E-1,6.227050781E-2,8.112553263E0
1.122034279E1,-8.344846802E0,3.601510620E-1,8.023315430E-2,8.353000317E0
1.123026379E1,-8.585097198E0,3.597019958E-1,9.639953613E-2,8.593170096E0
1.124018379E1,-8.877289581E0,3.887416077E-1,1.704954529E-1,8.887432647E0
1.125010479E1,-9.178463287E0,4.511618042E-1,2.445913696E-1,9.192799368E0
1.126002579E1,-9.417815552E0,5.457650757E-1,2.824626160E-1,9.437843738E0
1.126994679E1,-9.605824585E0,6.282435608E-1,2.885998535E-1,9.630672137E0
1.127986679E1,-9.802814941E0,7.062313843E-1,2.874023438E-1,9.832423081E0
1.128978779E1,-9.959089966E0,7.695497131E-1,2.905458069E-1,9.993002380E0
1.129970879E1,-1.008677444E1,7.932005310E-1,3.134481812E-1,1.012276818E1
1.130962879E1,-1.016161880E1,7.881111145E-1,3.348536682E-1,1.019763418E1
1.131954979E1,-1.008048752E1,7.455995178E-1,3.049159241E-1,1.011262186E1
1.132947079E1,-9.852960663E0,7.255412292E-1,2.809657288E-1,9.883632209E0
1.133939179E1,-9.534722443E0,7.213499451E-1,2.555186462E-1,9.565383818E0
1.134931179E1,-9.160051575E0,7.455995178E-1,2.773731995E-1,9.194530950E0
1.135923279E1,-8.798104248E0,7.592211914E-1,3.046165466E-1,8.836053781E0
1.136915379E1,-8.517886963E0,7.161108398E-1,3.159928894E-1,8.553774872E0
1.137907379E1,-8.370293884E0,6.539900208E-1,3.231779480E-1,8.402021581E0
1.138899479E1,-8.256380768E0,6.203100586E-1,3.335064697E-1,8.286364373E0
1.139891579E1,-8.174051971E0,6.102809143E-1,3.260220337E-1,8.203283415E0
1.140883679E1,-8.202193451E0,6.066883850E-1,3.381468201E-1,8.231548547E0
1.141875679E1,-8.313861237E0,5.846841431E-1,3.565585327E-1,8.342018832E0
1.142867779E1,-8.403075714E0,5.671705627E-1,3.908372498E-1,8.431258368E0
1.143859879E1,-8.514144745E0,5.373825073E-1,4.049079895E-1,8.540690322E0
1.144851879E1,-8.640482025E0,4.872367859E-1,4.053570557E-1,8.663696882E0
1.145843979E1,-8.723559265E0,4.346960449E-1,4.188290405E-1,8.744419058E0
1.146836079E1,-8.842412109E0,3.935316467E-1,5.090913391E-1,8.865793425E0
1.147828179E1,-8.965755615E0,4.065545654E-1,6.649172974E-1,8.999565288E0
1.148820179E1,-9.048383789E0,4.538562012E-1,8.336164856E-1,9.098030066E0
1.149812279E1,-9.213939514E0,4.776567078E-1,1.001567230E0,9.280515838E0
1.150804379E1,-9.341623993E0,4.772076416E-1,1.160536652E0,9.425524456E0
1.151796379E1,-9.418563995E0,4.851411438E-1,1.256936188E0,9.514441562E0
1.152788479E1,-9.443711700E0,4.854405212E-1,1.332678680E0,9.549626990E0
1.153780579E1,-9.477391663E0,4.963677979E-1,1.423689423E0,9.596573622E0
1.154772679E1,-9.566606140E0,5.221142578E-1,1.545236664E0,9.704654177E0
1.155764679E1,-9.627978516E0,5.462141418E-1,1.704056396E0,9.792861093E0
1.156756779E1,-9.698032837E0,5.586383057E-1,1.933828583E0,9.904726682E0
1.157748879E1,-9.849068756E0,5.526507568E-1,2.195334778E0,1.010589298E1
1.158740879E1,-9.998009033E0,5.532495117E-1,2.486179962E0,1.031733301E1
1.159732979E1,-1.025712021E1,5.733078003E-1,2.782413940E0,1.064326191E1
1.160725079E1,-1.059811111E1,6.436614990E-1,3.076701965E0,1.105442691E1
1.161717179E1,-1.085497696E1,7.794291687E-1,3.249442749E0,1.135768078E1
1.162709179E1,-1.119971008E1,9.857002258E-1,3.282973022E0,1.171251565E1
1.163701279E1,-1.151839737E1,1.246158600E0,3.230731659E0,1.202763552E1
1.164693379E1,-1.177601166E1,1.522184601E0,3.109334106E0,1.227434133E1
1.165685379E1,-1.190070236E1,1.775457916E0,3.002306671E0,1.240132303E1
1.166677479E1,-1.188872726E1,1.952988739E0,2.925965424E0,1.239827708E1
1.167669579E1,-1.182795364E1,2.066452789E0,2.851420441E0,1.234104181E1
1.168661679E1,-1.172302185E1,2.102378082E0,2.795137482E0,1.223364330E1
1.169653679E1,-1.169757477E1,2.071542206E0,2.718945923E0,1.218676370E1
1.170645779E1,-1.192585007E1,2.047891388E0,2.588117981E0,1.237409042E1
1.171637879E1,-1.242416382E1,2.027234344E0,2.405048676E0,1.281615328E1
1.172629879E1,-1.315718948E1,1.942959595E0,2.108365631E0,1.346595458E1
1.173621979E1,-1.371433090E1,1.742376709E0,1.633403320E0,1.392073113E1
1.174614079E1,-1.405577087E1,1.479223938E0,1.060245209E0,1.417310545E1
1.175606179E1,-1.398945877E1,1.282982025E0,5.721102905E-1,1.405981187E1
1.176598179E1,-1.361927856E1,1.109941864E0,1.675016785E-1,1.366545924E1
1.177590279E1,-1.286933807E1,8.589138794E-1,-1.920506287E-1,1.289939839E1
1.178582379E1,-1.186881866E1,5.132826233E-1,-4.610412598E-1,1.188885506E1
1.179574379E1,-1.111139374E1,8.487350464E-2,-6.499484253E-1,1.113071010E1
1.180566479E1,-1.011895752E1,-3.691323853E-1,-7.538323975E-1,1.015370983E1
1.181558579E1,-9.377998352E0,-8.475375366E-1,-7.092251587E-1,9.442890092E0
1.182550679E1,-8.906029816E0,-1.304387512E0,-5.528004456E-1,9.018003226E0
1.183542679E1,-8.546926575E0,-1.753603363E0,-3.544628906E-1,8.732165972E0
1.184534779E1,-8.316705322E0,-2.130818939E0,-9.145980835E-2,8.585822131E0
1.185526879E1,-8.314609680E0,-2.420915680E0,1.960922241E-1,8.662102460E0
1.186518879E1,-8.511001282E0,-2.600093079E0,4.285588074E-1,8.909617808E0
1.187510979E1,-8.892857208E0,-2.693798218E0,5.825885010E-1,9.310148631E0
1.188503079E1,-9.275162201E0,-2.758763123E0,7.009922791E-1,9.702102762E0
1.189495179E1,-9.614207153E0,-2.774929504E0,6.813830566E-1,1.002983030E1
1.190487179E1,-9.765392761E0,-2.675835571E0,6.147715759E-1,1.014400985E1
1.191479279E1,-9.686656494E0,-2.444416809E0,4.909790039E-1,1.000237712E1
1.192471379E1,-9.471404114E0,-2.137405243E0,3.495231628E-1,9.715871731E0
1.193463379E1,-9.100774841E0,-1.776655426E0,1.856140137E-1,9.274430429E0
1.194455479E1,-8.856632538E0,-1.392254791E0,4.625381470E-2,8.965514638E0
1.195447579E1,-8.740474091E0,-1.071322174E0,-4.146377563E-2,8.805983067E0
1.196439679E1,-8.660240936E0,-7.966433716E-1,-1.010398865E-1,8.697391724E0
1.197431679E1,-8.525820465E0,-5.578898621E-1,-1.589694214E-1,8.545532574E0
1.198423779E1,-8.381221161E0,-3.085084534E-1,-1.550775146E-1,8.388330862E0
1.199415879E1,-8.249794464E0,-3.412902832E-2,-1.016386414E-1,8.250491131E0
1.200407879E1,-8.138725433E0,2.448907471E-1,-1.377136230E-2,8.142420574E0
1.201399979E1,-8.061935120E0,4.893324280E-1,1.363664246E-1,8.077922994E0
1.202392079E1,-8.057294769E0,7.458988953E-1,3.303630066E-1,8.098487752E0
1.203384179E1,-8.133037262E0,1.003363495E0,6.373745728E-1,8.219445222E0
1.204376179E1,-8.312214661E0,1.178349609E0,1.024768982E0,8.457633938E0
1.205368279E1,-8.539891205E0,1.396446075E0,1.538500671E0,8.789015175E0
1.206360379E1,-8.757538605E0,1.678609314E0,2.269580383E0,9.201261150E0
1.207352379E1,-8.689729614E0,1.813927917E0,3.047512665E0,9.385577697E0
1.208344479E1,-8.403973846E0,1.694326630E0,3.568579102E0,9.286133530E0
1.209336579E1,-8.118667145E0,1.378483429E0,3.968996429E0,9.141438915E0
1.210328679E1,-7.855065308E0,9.967771912E-1,4.332141266E0,9.025689099E0
1.211320679E1,-7.351063385E0,4.029620361E-1,4.534370728E0,8.646446044E0
1.212312779E1,-6.823260956E0,-1.960922241E-2,4.638404388E0,8.250579971E0
1.213304879E1,-7.168742523E0,-3.233276367E-2,4.509073334E0,8.468982058E0
1.214296879E1,-7.639064484E0,7.589218140E-2,4.246968384E0,8.740583863E0
1.215288979E1,-8.010442200E0,8.202941895E-2,3.935017090E0,8.925148321E0
1.216281079E1,-8.366252289E0,9.310638428E-2,3.630699921E0,9.120571697E0
1.217273179E1,-8.640332336E0,1.719923401E-1,3.395988007E0,9.285346455E0
1.218265179E1,-8.797804871E0,3.079096985E-1,3.220852203E0,9.373903554E0
1.219257279E1,-8.981772308E0,4.978646851E-1,3.104993134E0,9.516358831E0
1.220249379E1,-9.159901886E0,7.054829407E-1,3.094814301E0,9.694296483E0
1.221241379E1,-9.283095703E0,9.273216248E-1,3.143912201E0,9.844794318E0
1.222233479E1,-9.490414581E0,1.167272644E0,3.271896057E0,1.010622571E1
1.223225579E1,-9.760752411E0,1.429976349E0,3.542832642E0,1.048183110E1
1.224217679E1,-1.012509476E1,1.723366241E0,3.923491058E0,1.099460400E1
1.225209679E1,-1.058538757E1,1.950743408E0,4.459526367E0,1.165088861E1
1.226201779E1,-1.094089828E1,2.129172363E0,5.077740784E0,1.224826852E1
1.227193879E1,-1.103580093E1,2.270328827E0,5.619164886E0,1.259040544E1
1.228185879E1,-1.096649506E1,2.353106689E0,6.046675873E0,1.274219031E1
1.229177979E1,-1.083342178E1,2.375859375E0,6.371650085E0,1.279084282E1
1.230170079E1,-1.077204941E1,2.312391357E0,6.626420288E0,1.285665773E1
1.231162079E1,-1.083641556E1,2.229314117E0,6.935976563E0,1.305777601E1
1.232154179E1,-1.090961334E1,2.168690186E0,7.235803070E0,1.326950363E1
1.233146279E1,-1.096350128E1,2.125130768E0,7.525301056E0,1.346642852E1
1.234138379E1,-1.132829269E1,1.906285858E0,7.715555420E0,1.383813342E1
1.235130379E1,-1.171239395E1,1.251846771E0,7.452851715E0,1.393887697E1
1.236122479E1,-1.200832855E1,1.636097717E-1,6.643933868E0,1.372474335E1
1.237114579E1,-1.201192108E1,-7.039860535E-1,5.230423279E0,1.312018186E1
1.238106579E1,-1.203347626E1,-8.283773804E-1,3.518882446E0,1.256476397E1
1.239098679E1,-1.232926117E1,-7.047344971E-1,2.027683411E0,1.251474457E1
1.240090779E1,-1.250783981E1,-7.316784668E-1,1.036744080E0,1.257204233E1
1.241082879E1,-1.231249603E1,-8.743318176E-1,4.483177185E-1,1.235163971E1
1.242074879E1,-1.156315430E1,-9.235794067E-1,-2.799179077E-2,1.160001378E1
1.243066979E1,-1.063268921E1,-8.915460205E-1,-3.598516846E-1,1.067606797E1
1.244059079E1,-9.936337280E0,-8.725355530E-1,-4.489164734E-1,9.984670392E0
1.245051079E1,-9.397158508E0,-8.303233337E-1,-3.742218018E-1,9.441189905E0
1.246043179E1,-8.868607635E0,-6.839277649E-1,-3.534150696E-1,8.901958256E0
1.247035279E1,-8.463250580E0,-4.558021545E-1,-3.225791931E-1,8.481652157E0
1.248027379E1,-8.113577728E0,-1.950444031E-1,-2.791694641E-1,8.120721733E0
1.249019379E1,-7.905360718E0,4.580474854E-2,-1.960922241E-1,7.907925032E0
1.250011479E1,-7.853269043E0,2.517764282E-1,-1.143621826E-1,7.858136213E0
1.251003579E1,-7.954608307E0,4.116439819E-1,-8.083190918E-2,7.965662426E0
1.251995579E1,-8.217162323E0,5.348377991E-1,-3.712280273E-2,8.234633338E0
1.252987679E1,-8.561745758E0,6.276448059E-1,4.505630493E-2,8.584838874E0
1.253979779E1,-8.874146118E0,7.405101013E-1,1.447489929E-1,8.906165101E0
1.254971879E1,-9.189390564E0,8.400531006E-1,2.336640930E-1,9.230665580E0
1.255963879E1,-9.447753296E0,8.295748901E-1,2.719844055E-1,9.488003602E0
1.256955979E1,-9.688003693E0,7.292834473E-1,2.757266235E-1,9.719325854E0
1.257948079E1,-9.833201752E0,6.372248840E-1,2.393522644E-1,9.856733828E0
1.258940079E1,-9.890233154E0,5.396278381E-1,2.239343262E-1,9.907474786E0
1.259932179E1,-9.931247864E0,4.890330505E-1,2.357597351E-1,9.946075613E0
1.260924279E1,-9.897567902E0,4.281097412E-1,2.221380615E-1,9.909312470E0
1.261916379E1,-9.806856537E0,3.608995056E-1,2.276765442E-1,9.816135706E0
1.262908379E1,-9.608518982E0,3.149450684E-1,2.065704346E-1,9.615898230E0
1.263900479E1,-9.291927338E0,3.109034729E-1,1.823208618E-1,9.298914749E0
1.264892579E1,-8.976533203E0,2.996768188E-1,1.483415222E-1,8.982759028E0
1.265884579E1,-8.779093781E0,3.049159241E-1,1.047821045E-1,8.785012272E0
1.266876679E1,-8.673413544E0,3.311114502E-1,1.224453735E-1,8.680595035E0
1.267868779E1,-8.598868561E0,3.808081055E-1,1.740879822E-1,8.609056973E0
1.268860779E1,-8.626261597E0,4.367916870E-1,2.462379456E-1,8.640822255E0
1.269852879E1,-8.669970703E0,4.727169800E-1,3.474275208E-1,8.689796270E0
1.270844979E1,-8.644523621E0,4.876858521E-1,4.614903259E-1,8.670559350E0
1.271837079E1,-8.622669067E0,4.971162415E-1,6.132746887E-1,8.658732716E0
1.272829079E1,-8.633147278E0,5.040019226E-1,8.074209595E-1,8.685457873E0
1.273821179E1,-8.622968445E0,5.023553467E-1,9.982740784E-1,8.695084636E0
1.274813279E1,-8.676407318E0,5.216651917E-1,1.141376495E0,8.766693723E0
1.275805279E1,-8.754095764E0,5.486091614E-1,1.281185760E0,8.864344398E0
1.276797379E1,-8.828191681E0,5.936654663E-1,1.430126038E0,8.962960868E0
1.277789479E1,-8.886270905E0,6.474037170E-1,1.663640442E0,9.063809446E0
1.278781579E1,-8.888665924E0,7.220983887E-1,1.901795197E0,9.118477557E0
1.279773579E1,-8.891360321E0,7.831713867E-1,2.095791779E0,9.168532541E0
1.280765725E1,-8.871451721E0,8.349636841E-1,2.271676025E0,9.195669196E0
1.281757825E1,-8.903934174E0,8.846603394E-1,2.455643463E0,9.278623416E0
1.282749825E1,-8.982371063E0,9.412426758E-1,2.545456696E0,9.383404365E0
1.283741925E1,-9.122779083E0,1.027463379E0,2.628683624E0,9.549385153E0
1.284734025E1,-9.306297455E0,1.099014587E0,2.731519775E0,9.760953113E0
1.285726125E1,-9.517059174E0,1.111289062E0,2.862198029E0,1.000007781E1
1.286718125E1,-9.779463501E0,1.102607117E0,2.992427216E0,1.028631467E1
1.287710225E1,-1.002974304E1,1.078806610E0,3.028502197E0,1.053239739E1
1.288702325E1,-1.024454636E1,1.064137115E0,3.009491730E0,1.073033822E1
1.289694325E1,-1.052626053E1,1.089883575E0,2.899470520E0,1.097255377E1
1.290686425E1,-1.074690170E1,1.167272644E0,2.701432343E0,1.114253824E1
1.291678525E1,-1.095032867E1,1.283431091E0,2.430944824E0,1.129010125E1
1.292670625E1,-1.109013794E1,1.412762146E0,2.156415710E0,1.138583265E1
1.293662625E1,-1.125090363E1,1.517544250E0,1.955982513E0,1.152005384E1
1.294654725E1,-1.137529495E1,1.614841919E0,1.814975739E0,1.163181785E1
1.295646825E1,-1.148037643E1,1.734293518E0,1.736239471E0,1.173973358E1
1.296638825E1,-1.160192368E1,1.860481110E0,1.662143555E0,1.186712872E1
1.297630925E1,-1.167033142E1,2.005679169E0,1.617236938E0,1.195135305E1
1.298623025E1,-1.169652695E1,2.130519562E0,1.548829193E0,1.198944236E1
1.299615025E1,-1.161000687E1,2.200124817E0,1.513203278E0,1.191312691E1
1.300607125E1,-1.162871796E1,2.166444855E0,1.537153473E0,1.192826079E1
1.301599225E1,-1.183588715E1,2.022593994E0,1.568288727E0,1.210944427E1
1.302591325E1,-1.218047058E1,1.842967529E0,1.545086975E0,1.241562268E1
1.303583325E1,-1.253687943E1,1.581461334E0,1.465602264E0,1.272094162E1
1.304575425E1,-1.276380753E1,1.286574554E0,1.361418915E0,1.290052395E1
1.305567525E1,-1.268162842E1,9.982740784E-1,1.222208405E0,1.277943832E1
1.306559525E1,-1.237311996E1,7.821235657E-1,1.077160034E0,1.244452043E1
1.307551625E1,-1.189755890E1,6.780899048E-1,8.385562134E-1,1.194633376E1
1.308543725E1,-1.145283371E1,6.773414612E-1,5.736071777E-1,1.148717618E1
1.309535825E1,-1.100765945E1,6.718029785E-1,2.612068176E-1,1.103123361E1
1.310527825E1,-1.045171555E1,6.105802917E-1,-3.667373657E-2,1.046959938E1
1.311519925E1,-9.840686188E0,4.917274475E-1,-2.956352234E-1,9.857398273E0
1.312512025E1,-9.248966675E0,3.110531616E-1,-4.760101318E-1,9.266429963E0
1.313504025E1,-8.764573975E0,8.592132568E-2,-5.186714172E-1,8.780327982E0
1.314496125E1,-8.485703888E0,-2.266287231E-1,-4.544549561E-1,8.500885857E0
1.315488225E1,-8.377928009E0,-4.846920776E-1,-3.525169373E-1,8.399337612E0
1.316480325E1,-8.428223419E0,-7.327262878E-1,-2.655477905E-1,8.464180613E0
1.317472325E1,-8.659193115E0,-1.057999878E0,-8.247848511E-2,8.723977983E0
1.318464425E1,-9.066795502E0,-1.353036346E0,2.016307068E-1,9.169413447E0
1.319456525E1,-9.491013336E0,-1.602417755E0,4.692741394E-1,9.636767872E0
1.320448525E1,-9.830058289E0,-1.787283325E0,6.879693604E-1,1.001487541E1
1.321440625E1,-1.003288651E1,-1.917811890E0,8.634045410E-1,1.025096490E1
1.322432725E1,-1.013692017E1,-1.991159363E0,9.336085510E-1,1.037272823E1
1.323424725E1,-1.002001328E1,-1.914518738E0,8.749305725E-1,1.023872802E1
1.324416825E1,-9.717941437E0,-1.762285309E0,7.375163269E-1,9.903936874E0
1.325408925E1,-9.508676605E0,-1.618434448E0,6.027964783E-1,9.664244639E0
1.326401025E1,-9.362131348E0,-1.444496155E0,4.534071350E-1,9.483757195E0
1.327393025E1,-9.238338776E0,-1.227297821E0,3.483256531E-1,9.326011690E0
1.328385125E1,-9.098379822E0,-9.948312378E-1,3.046165466E-1,9.157674149E0
1.329377225E1,-8.932225342E0,-7.810757446E-1,2.860551453E-1,8.970872668E0
1.330369225E1,-8.766070862E0,-6.027964783E-1,2.766247559E-1,8.791125252E0
1.331361325E1,-8.614885254E0,-3.734733582E-1,2.598596191E-1,8.626891521E0
1.332353425E1,-8.519383850E0,-1.252894592E-1,3.171903992E-1,8.526207151E0
1.333345525E1,-8.508306885E0,2.151026917E-1,4.707710266E-1,8.524035463E0
1.334337525E1,-8.618777161E0,6.863227844E-1,9.315129089E-1,8.696095389E0
1.335329625E1,-8.785081329E0,1.228645020E0,1.764231262E0,9.044320566E0
1.336321725E1,-8.721613312E0,1.798210602E0,2.914888458E0,9.369987986E0
1.337313725E1,-8.674311676E0,1.968406677E0,4.052672424E0,9.774582430E0
1.338305825E1,-8.406817932E0,1.841919708E0,5.032684479E0,9.969712585E0
1.339297925E1,-7.870932312E0,1.641037445E0,5.729635162E0,9.872856651E0
1.340290025E1,-7.386838989E0,1.495689697E0,6.188580780E0,9.751974672E0
1.341282025E1,-6.951693878E0,1.332978058E0,6.307583313E0,9.480953830E0
1.342274125E1,-6.597380676E0,1.205742645E0,6.097420349E0,9.064093006E0
1.343266225E1,-6.602021027E0,8.924441528E-1,5.653742981E0,8.737731279E0
1.344258225E1,-6.686595154E0,3.948788452E-1,4.859344940E0,8.275247265E0
1.345250325E1,-6.877148895E0,-6.122268677E-2,4.025728455E0,7.969028469E0
1.346242425E1,-7.248975677E0,-4.373904419E-1,3.439397736E0,8.035447440E0
1.347234425E1,-7.647147675E0,-6.460565186E-1,2.995720367E0,8.238361312E0
1.348226525E1,-7.924520874E0,-6.316864014E-1,2.677033081E0,8.388299286E0
1.349218625E1,-8.309370575E0,-4.260140991E-1,2.425106964E0,8.666502821E0
1.350210725E1,-8.566535797E0,-2.944377136E-1,2.258952484E0,8.864259442E0
1.351202725E1,-8.689430237E0,-1.332229614E-1,2.130369873E0,8.947760725E0
1.352194825E1,-8.781339111E0,8.202941895E-2,2.026036835E0,9.012406486E0
1.353186925E1,-8.925788727E0,3.613485718E-1,1.996398468E0,9.153462953E0
1.354178925E1,-9.065148926E0,6.993457031E-1,2.020049286E0,9.313785942E0
1.355171025E1,-9.193881226E0,1.063688049E0,2.155068512E0,9.502799827E0
1.356163125E1,-9.286239166E0,1.482217712E0,2.445015564E0,9.716445251E0
1.357155225E1,-9.379046173E0,1.904040527E0,3.028053131E0,1.003797705E1
1.358147225E1,-9.612111511E0,2.150428162E0,3.948040009E0,1.061150550E1
1.359139325E1,-9.990075531E0,2.337838440E0,5.054539032E0,1.143745874E1
1.360131425E1,-1.029873367E1,2.574047241E0,6.097420349E0,1.224206557E1
1.361123425E1,-1.037013519E1,2.826422424E0,7.041656799E0,1.284964195E1
1.362115525E1,-1.026999344E1,2.992277527E0,7.704328766E0,1.318268454E1
1.363107625E1,-1.016820511E1,3.082689514E0,7.995473328E0,1.329747959E1
1.364099625E1,-1.014260834E1,3.148253174E0,8.013585663E0,1.330419322E1
1.365091725E1,-1.015398468E1,3.151246948E0,7.854466553E0,1.321841167E1
1.366083825E1,-1.030247589E1,3.124901733E0,7.572153625E0,1.316220084E1
1.367075925E1,-1.038525375E1,2.899320831E0,7.304061127E0,1.302339686E1
1.368067925E1,-1.031924103E1,2.332749023E0,7.075037384E0,1.272731737E1
1.369060025E1,-1.062580353E1,1.885928192E0,6.765181732E0,1.273703692E1
1.370052125E1,-1.088386688E1,1.385518799E0,6.050118713E0,1.252925206E1
1.371044125E1,-1.116707794E1,8.009843445E-1,4.816983032E0,1.218804870E1
1.372036225E1,-1.151390671E1,2.483335876E-1,3.281176758E0,1.197488364E1
1.373028325E1,-1.197090637E1,4.385879517E-2,1.869761810E0,1.211612695E1
1.374020425E1,-1.224453735E1,4.610412598E-2,8.896000671E-1,1.227689736E1
1.375012425E1,-1.247371078E1,-7.753875732E-2,3.640429688E-1,1.247926281E1
1.376004525E1,-1.246203506E1,-2.064207458E-1,5.358856201E-2,1.246385972E1
1.376996625E1,-1.212463669E1,-3.132984924E-1,-1.621128845E-1,1.212976716E1
1.377988625E1,-1.140762772E1,-4.745132446E-1,-2.113604736E-1,1.141944859E1
1.378980725E1,-1.062864761E1,-6.328839111E-1,-1.438508606E-1,1.064844520E1
1.379972825E1,-9.899513855E0,-7.396119690E-1,-1.008901978E-1,9.927616998E0
1.380964838E1,-9.168284454E0,-7.400610352E-1,-4.460723877E-2,9.198212869E0
1.381956938E1,-8.771309967E0,-6.948550415E-1,5.164260864E-2,8.798941358E0
1.382949038E1,-8.569379883E0,-5.557942200E-1,1.939965820E-1,8.589575861E0
1.383941137E1,-8.467441864E0,-3.972738647E-1,3.239263916E-1,8.482943272E0
1.384933137E1,-8.495733032E0,-2.917433167E-1,3.568579102E-1,8.508227870E0
1.385925237E1,-8.575666809E0,-1.939965820E-1,2.911445618E-1,8.582800304E0
1.386917337E1,-8.747659149E0,-4.550537109E-2,2.740800476E-1,8.752070109E0
1.387909338E1,-9.056766357E0,1.142124939E-1,2.734812927E-1,9.061614280E0
1.388901438E1,-9.350755005E0,2.758763123E-1,2.633024597E-1,9.358528468E0
1.389893538E1,-9.614207153E0,3.852987671E-1,3.248245239E-1,9.627405949E0
1.390885538E1,-9.805060272E0,4.421804810E-1,4.004173279E-1,9.823190141E0
1.391877638E1,-9.911788330E0,4.132905579E-1,4.258644104E-1,9.929537627E0
1.392869737E1,-9.952353973E0,3.523672485E-1,4.336482239E-1,9.968027040E0
1.393861837E1,-9.911189575E0,3.246748352E-1,4.170327759E-1,9.925271225E0
1.394853837E1,-9.870773621E0,3.213816833E-1,3.691323853E-1,9.882900221E0
1.395845937E1,-9.724378052E0,4.519102478E-1,3.580554199E-1,9.741455489E0
1.396838037E1,-9.474098511E0,7.129673767E-1,4.117936707E-1,9.509807522E0
1.397830038E1,-9.203311615E0,8.238867188E-1,4.613406372E-1,9.251625219E0
1.398822138E1,-8.925639038E0,8.253836060E-1,4.604425049E-1,8.975538849E0
1.399814238E1,-8.725654907E0,8.068222046E-1,5.176235962E-1,8.778151845E0
1.400806238E1,-8.607400818E0,7.656578064E-1,6.252497864E-1,8.663978186E0
1.401798338E1,-8.443641357E0,7.572752380E-1,7.179071045E-1,8.507874927E0
1.402790437E1,-8.382568359E0,7.771838379E-1,8.135581970E-1,8.457738702E0
1.403782537E1,-8.256680145E0,7.809260559E-1,8.773255920E-1,8.339802919E0
1.404774537E1,-8.227939911E0,7.520361328E-1,9.406439209E-1,8.315609690E0
1.405766637E1,-8.289312286E0,7.203021240E-1,1.020727386E0,8.382924175E0
1.406758738E1,-8.342302094E0,7.105723572E-1,1.120270386E0,8.447125134E0
1.407750738E1,-8.405770111E0,7.589218140E-1,1.269360352E0,8.534881908E0
1.408742838E1,-8.494086456E0,8.497828674E-1,1.464105377E0,8.661133887E0
1.409734938E1,-8.612789612E0,9.686357117E-1,1.564696198E0,8.807194459E0
1.410727038E1,-8.666527863E0,1.069226532E0,1.661395111E0,8.888879810E0
1.411719037E1,-8.709787903E0,1.130000153E0,1.777403870E0,8.960829770E0
1.412711137E1,-8.729995880E0,1.172212372E0,1.890119476E0,9.008854619E0
1.413703237E1,-8.752748566E0,1.200952606E0,2.013313293E0,9.061254054E0
1.414695237E1,-8.753497009E0,1.165326691E0,2.141596527E0,9.086700824E0
1.415687338E1,-8.767418060E0,1.096170502E0,2.267784119E0,9.122064132E0
1.416679438E1,-8.828940125E0,9.770182800E-1,2.408641205E0,9.203602604E0
1.417671538E1,-8.894952850E0,8.283773804E-1,2.514471130E0,9.280568967E0
1.418663538E1,-8.933871918E0,7.439529419E-1,2.593057709E0,9.332281699E0
1.419655638E1,-9.049581299E0,6.890171814E-1,2.689756622E0,9.465963081E0
1.420647738E1,-9.192084961E0,6.324348450E-1,2.798580322E0,9.629457492E0
1.421639737E1,-9.497749329E0,6.884184265E-1,2.784210205E0,9.921340066E0
1.422631837E1,-9.795031128E0,9.358538818E-1,2.638263702E0,1.018719258E1
1.423623937E1,-1.020158569E1,1.275198212E0,2.383643188E0,1.055368353E1
1.424615938E1,-1.066068100E1,1.534159698E0,2.074386292E0,1.096844765E1
1.425608038E1,-1.097697327E1,1.717678070E0,1.750908966E0,1.124766830E1
1.426600138E1,-1.104343506E1,1.803150330E0,1.563798065E0,1.129841907E1
1.427592138E1,-1.146735352E1,1.819915466E0,1.555565186E0,1.171460934E1
1.428584238E1,-1.148486710E1,1.751058655E0,1.622176666E0,1.173029564E1
1.429576338E1,-1.149055527E1,1.654808807E0,1.643731842E0,1.172489262E1
1.430568437E1,-1.148591492E1,1.628164215E0,1.689835968E0,1.172316961E1
1.431560437E1,-1.145912064E1,1.642085266E0,1.769919434E0,1.171070043E1
1.432552537E1,-1.152139114E1,1.693428497E0,1.877545624E0,1.179556406E1
1.433544637E1,-1.167137924E1,1.727707214E0,1.946701813E0,1.195808152E1
1.434536638E1,-1.190294769E1,1.765279083E0,1.982028351E0,1.219527820E1
1.435528738E1,-1.230501160E1,1.803898773E0,2.011966095E0,1.259822879E1
1.436520838E1,-1.266501297E1,1.697470093E0,1.925745392E0,1.292255600E1
1.437512938E1,-1.293579987E1,1.385369110E0,1.735041962E0,1.312495853E1
1.438504938E1,-1.295750473E1,1.003962250E0,1.512454834E0,1.308405093E1
1.439497037E1,-1.259855118E1,7.834707642E-1,1.253792725E0,1.268500352E1
1.440489137E1,-1.236788086E1,7.774832153E-1,9.677375793E-1,1.243002305E1
1.441481137E1,-1.233180588E1,9.470805359E-1,6.062393188E-1,1.238296911E1
1.442473237E1,-1.217178864E1,1.057401123E0,1.204994202E-1,1.221822638E1
1.443465338E1,-1.158635605E1,9.777667236E-1,-3.198847961E-1,1.163193881E1
1.444457338E1,-1.052042267E1,7.809260559E-1,-5.938151550E-1,1.056606621E1
1.445449438E1,-9.820328522E0,4.596940613E-1,-6.741979980E-1,9.854172408E0
1.446441538E1,-9.081764374E0,9.999206543E-2,-6.486012268E-1,9.105444860E0
1.447433638E1,-8.547076263E0,-2.502795410E-1,-5.409750366E-1,8.567835578E0
1.448425637E1,-8.189020844E0,-5.167254639E-1,-3.740721130E-1,8.213829650E0
1.449417737E1,-8.044870605E0,-7.982899475E-1,-1.498384094E-1,8.085769070E0
1.450409837E1,-8.059540100E0,-1.062191162E0,1.182540894E-1,8.130093525E0
1.451401837E1,-8.393046570E0,-1.270408173E0,4.206253052E-1,8.499064260E0
1.452393937E1,-8.923842773E0,-1.460961914E0,6.941065979E-1,9.069242721E0
1.453386038E1,-9.457632751E0,-1.631307678E0,9.237290955E-1,9.641641844E0
1.454378038E1,-9.867779846E0,-1.777553558E0,1.030157776E0,1.007938494E1
1.455370138E1,-1.011341904E1,-1.859732666E0,9.425898743E-1,1.032609926E1
1.456362238E1,-1.004441254E1,-1.881138153E0,7.206015015E-1,1.024442143E1
1.457354338E1,-9.713600464E0,-1.789977722E0,4.706213379E-1,9.888353688E0
1.458346337E1,-9.357640686E0,-1.552272034E0,2.972817993E-1,9.490171977E0
1.459338437E1,-9.041797485E0,-1.208886108E0,1.435514832E-1,9.123382838E0
1.460330537E1,-8.942254486E0,-9.054670715E-1,1.107696533E-2,8.987986905E0
1.461322537E1,-9.008716278E0,-7.012916565E-1,-6.945556641E-2,9.036238324E0
1.462314638E1,-8.970545654E0,-5.315446472E-1,-1.127156067E-1,8.986986918E0
1.463306738E1,-8.865613861E0,-3.793112183E-1,-1.089733887E-1,8.874393576E0
1.464298738E1,-8.810528412E0,-2.272274780E-1,2.380050659E-2,8.813490210E0
1.465290838E1,-8.834777985E0,-3.143463135E-2,2.360591125E-1,8.837986992E0
1.466282938E1,-8.709338837E0,1.755848694E-1,5.225633240E-1,8.726768328E0
1.467275038E1,-8.734486542E0,4.143383789E-1,9.210346985E-1,8.792680840E0
1.468267037E1,-8.814719696E0,6.897656250E-1,1.508113861E0,8.969362706E0
1.469259137E1,-8.769663391E0,8.345146179E-1,2.350561981E0,9.117486072E0
1.470251237E1,-8.575666809E0,7.077282715E-1,3.303031311E0,9.216992805E0
1.471243238E1,-8.250842285E0,5.631289673E-1,4.112398224E0,9.236088555E0
1.472235338E1,-7.888296204E0,4.968168640E-1,4.734354858E0,9.213368543E0
1.473227438E1,-7.427853699E0,4.626878357E-1,5.183720398E0,9.069622251E0
1.474219438E1,-7.210505676E0,4.519102478E-1,5.524411926E0,9.094764544E0
1.475211538E1,-6.988217926E0,4.670288086E-1,5.663173370E0,9.006932792E0
1.476203638E1,-6.728358307E0,5.234614563E-1,5.580395508E0,8.757033255E0
1.477195737E1,-6.521937561E0,4.962181091E-1,5.255870361E0,8.390832808E0
1.478187737E1,-6.402485962E0,3.676354980E-1,4.851411438E0,8.041341635E0
1.479179837E1,-6.557563477E0,1.398092651E-1,4.471202087E0,7.938062326E0
1.480171937E1,-7.054230652E0,-1.098715210E-1,4.258943481E0,8.240924791E0
1.481163892E1,-7.537126465E0,-2.399510193E-1,4.059857483E0,8.564361892E0
1.482155992E1,-7.845784607E0,-2.436932373E-1,3.792663116E0,8.717798805E0
1.483148092E1,-8.113727417E0,-2.335144043E-1,3.468287659E0,8.827010868E0
1.484140192E1,-8.393046570E0,-2.158511353E-1,3.132386169E0,8.961119659E0
1.485132192E1,-8.642577667E0,-1.383123779E-1,2.842439117E0,9.099051554E0
1.486124292E1,-8.830886078E0,-1.930984497E-2,2.630030823E0,9.214227256E0
1.487116392E1,-9.034313049E0,1.499880981E-1,2.461032257E0,9.364720416E0
1.488108392E1,-9.218430176E0,3.516188049E-1,2.316582642E0,9.511553281E0
1.489100492E1,-9.499695282E0,5.438191223E-1,2.287093964E0,9.786253036E0
1.490092592E1,-9.815837860E0,7.400610352E-1,2.424208832E0,1.013780803E1
1.491084592E1,-1.013692017E1,1.002165985E0,2.757415924E0,1.055295360E1
1.492076692E1,-1.048105453E1,1.336869965E0,3.350931702E0,1.108460503E1
1.493068792E1,-1.079659836E1,1.716929626E0,4.306694183E0,1.174997865E1
1.494060892E1,-1.107516907E1,2.075883179E0,5.521717529E0,1.254822798E1
1.495052892E1,-1.105226669E1,2.253414001E0,6.583609314E0,1.306041291E1
1.496044992E1,-1.071397018E1,2.334245911E0,7.327562256E0,1.318829139E1
1.497037092E1,-1.043764481E1,2.443219299E0,7.827971649E0,1.327369164E1
1.498029092E1,-1.016790573E1,2.649640045E0,8.104297028E0,1.326975997E1
1.499021192E1,-9.922565918E0,2.824027405E0,8.259524231E0,1.321560387E1
1.500013292E1,-9.716594238E0,2.975512390E0,8.296946411E0,1.311888705E1
1.501005292E1,-9.588011627E0,3.020269318E0,8.209378510E0,1.297867055E1
1.501997392E1,-9.575437775E0,2.890638885E0,7.954009552E0,1.277932196E1
1.502989492E1,-9.827962646E0,2.504591675E0,7.410040741E0,1.256067407E1
1.503981492E1,-1.027074188E1,1.892514496E0,6.270460510E0,1.218147877E1
1.504973592E1,-1.082084793E1,1.192270660E0,4.515060883E0,1.178550101E1
1.505965692E1,-1.145552811E1,6.542893982E-1,2.739303589E0,1.179665219E1
1.506957792E1,-1.207419159E1,4.453239441E-1,1.423539734E0,1.216597227E1
1.507949792E1,-1.254047195E1,2.380050659E-1,6.167175293E-1,1.255788293E1
1.508941892E1,-1.274734177E1,-7.259902954E-2,1.555265808E-1,1.274849722E1
1.509933992E1,-1.251337830E1,-3.906875610E-1,-1.830693054E-1,1.252081417E1
1.510925992E1,-1.193168793E1,-6.126759338E-1,-3.354524231E-1,1.195211600E1
1.511918092E1,-1.130973129E1,-8.390052795E-1,-3.213816833E-1,1.134536196E1
1.512910192E1,-1.066053131E1,-1.032702484E0,-2.579136658E-1,1.071353918E1
1.513902192E1,-9.914632416E0,-1.100810852E0,-1.865121460E-1,9.977299597E0
1.514894292E1,-9.313183136E0,-1.061293030E0,-1.178050232E-1,9.374198688E0
1.515886392E1,-8.869655457E0,-9.193881226E-1,-3.053649902E-2,8.917230227E0
1.516878492E1,-8.652008057E0,-7.553292847E-1,4.700225830E-2,8.685043175E0
1.517870492E1,-8.812773743E0,-6.610253906E-1,9.864486694E-2,8.838080471E0
1.518862592E1,-9.154513092E0,-5.599855042E-1,9.520202637E-2,9.172118465E0
1.519854692E1,-9.488768005E0,-3.453318787E-1,8.472381592E-2,9.495427873E0
1.520846692E1,-9.792037354E0,-7.020401001E-2,5.403762817E-2,9.792438113E0
1.521838792E1,-9.964029694E0,2.255809021E-1,4.939727783E-2,9.966705302E0
1.522830892E1,-1.003243744E1,4.376898193E-1,3.802093506E-2,1.004205253E1
1.523822892E1,-9.930948486E0,5.845344543E-1,3.652404785E-2,9.948203475E0
1.524814992E1,-9.704319763E0,6.932084656E-1,2.559677124E-2,9.729080904E0
1.525807092E1,-9.473350067E0,7.550299072E-1,8.547225952E-2,9.503774890E0
1.526799192E1,-9.271120605E0,8.050259399E-1,1.231938171E-1,9.306821195E0
1.527791192E1,-9.349557495E0,8.232879639E-1,1.875599670E-1,9.387609236E0
1.528783292E1,-9.392518158E0,7.893086243E-1,2.558180237E-1,9.429095838E0
1.529775392E1,-9.307494965E0,6.625222778E-1,2.959346008E-1,9.335736477E0
1.530767392E1,-9.160201263E0,5.710624695E-1,3.103047180E-1,9.183228656E0
1.531759492E1,-8.983867950E0,6.942562866E-1,3.680845642E-1,9.018168405E0
1.532751592E1,-8.780890045E0,9.131011963E-1,4.884342957E-1,8.841739186E0
1.533743592E1,-8.570427704E0,9.277706909E-1,5.328918457E-1,8.636953352E0
1.534735692E1,-8.342451782E0,9.071136475E-1,5.590873718E-1,8.410228035E0
1.535727792E1,-8.362659760E0,8.078700256E-1,5.746549988E-1,8.421220850E0
1.536719892E1,-8.456215210E0,7.131170654E-1,5.581892395E-1,8.504568587E0
1.537711892E1,-8.549471283E0,6.667135620E-1,6.251000977E-1,8.598180989E0
1.538703992E1,-8.617879028E0,6.511459351E-1,7.920030212E-1,8.678657659E0
1.539696092E1,-8.605155487E0,6.391708374E-1,9.618997192E-1,8.682309104E0
1.540688092E1,-8.591234436E0,6.417155457E-1,1.106798401E0,8.685972063E0
1.541680192E1,-8.548423462E0,6.324348450E-1,1.236728210E0,8.660543527E0
1.542672292E1,-8.586893463E0,5.908213806E-1,1.379231873E0,8.717000046E0
1.543664292E1,-8.679700470E0,5.505551147E-1,1.552272034E0,8.834583162E0
1.544656392E1,-8.732390900E0,5.104385376E-1,1.651216278E0,8.901781480E0
1.545648492E1,-8.822802887E0,4.670288086E-1,1.784588928E0,9.013585543E0
1.546640592E1,-8.984017639E0,4.225712585E-1,1.959425354E0,9.204916465E0
1.547632592E1,-9.052724762E0,4.135899353E-1,2.150278473E0,9.313784395E0
1.548624692E1,-9.142238617E0,3.902384949E-1,2.375110931E0,9.453780458E0
1.549616792E1,-9.182055817E0,3.686833191E-1,2.547702026E0,9.536082111E0
1.550608792E1,-9.242679749E0,3.751199341E-1,2.718496857E0,9.641476498E0
1.551600892E1,-9.285191345E0,3.453318787E-1,2.996618500E0,9.762876362E0
1.552592992E1,-9.306297455E0,3.028202820E-1,3.306174774E0,9.880772443E0
1.553584992E1,-9.389075317E0,2.953358459E-1,3.429967346E0,1.000033172E1
1.554577092E1,-9.620045013E0,3.016227722E-1,3.429518280E0,1.021752602E1
1.555569192E1,-9.867480469E0,5.026547241E-1,3.325933685E0,1.042505000E1
1.556561292E1,-1.006192612E1,9.529183960E-1,3.072810059E0,1.056373856E1
1.557553292E1,-1.023227188E1,1.323248291E0,2.728975067E0,1.067228555E1
1.558545392E1,-1.035651352E1,1.574425964E0,2.404749298E0,1.074797695E1
1.559537492E1,-1.051443512E1,1.728904724E0,2.019300842E0,1.084527701E1
1.560529492E1,-1.075737991E1,1.760339355E0,1.709445190E0,1.103368570E1
1.561521592E1,-1.108489883E1,1.677711182E0,1.542392578E0,1.131674299E1
1.562513692E1,-1.126317810E1,1.562600555E0,1.359023895E0,1.145198006E1
1.563505692E1,-1.128278732E1,1.439406738E0,1.218915253E0,1.143935907E1
1.564497792E1,-1.129581024E1,1.368753662E0,1.180295563E0,1.143948920E1
1.565489892E1,-1.130374374E1,1.375639343E0,1.181343384E0,1.144825657E1
1.566481992E1,-1.130628845E1,1.376387787E0,1.262175293E0,1.145948028E1
1.567473992E1,-1.129102020E1,1.370998993E0,1.352287903E0,1.145405858E1
1.568466092E1,-1.130868347E1,1.360969849E0,1.438658295E0,1.148077952E1
1.569458192E1,-1.144699585E1,1.322948914E0,1.499282227E0,1.162031648E1
1.570450192E1,-1.160940811E1,1.189875641E0,1.552870789E0,1.177308661E1
1.571442292E1,-1.186732178E1,8.134085083E-1,1.594484253E0,1.200155572E1
1.572434392E1,-1.188633224E1,3.606001282E-1,1.535057831E0,1.199046827E1
1.573426392E1,-1.161734161E1,1.191522217E-1,1.389410706E0,1.170073867E1
1.574418492E1,-1.124117386E1,1.986369324E-1,1.156794434E0,1.130228383E1
1.575410592E1,-1.105511078E1,5.122348022E-1,8.857081604E-1,1.110235731E1
1.576402592E1,-1.095901062E1,6.286926270E-1,5.432203674E-1,1.099046207E1
1.577394692E1,-1.075244019E1,6.251000977E-1,1.501377869E-1,1.077164154E1
1.578386792E1,-1.061592407E1,6.694079590E-1,-2.139051819E-1,1.063915910E1
1.579378892E1,-1.061891785E1,6.824308777E-1,-5.007087708E-1,1.065259768E1
1.580370892E1,-1.060215271E1,5.680686951E-1,-6.619235229E-1,1.063797381E1
1.581362950E1,-1.050036438E1,3.029699707E-1,-6.888674927E-1,1.052729696E1
1.582355050E1,-1.024768982E1,-3.951782227E-2,-6.447093201E-1,1.026802602E1
1.583347050E1,-1.009695328E1,-4.044589233E-1,-4.510121155E-1,1.011511070E1
1.584339150E1,-1.005653732E1,-7.321275330E-1,-2.019300842E-1,1.008517374E1
1.585331250E1,-9.991273041E0,-1.066532135E0,1.038839722E-1,1.004857302E1
1.586323250E1,-9.966873779E0,-1.399439850E0,4.863386536E-1,1.007638477E1
1.587315350E1,-1.002884491E1,-1.694176941E0,8.141569519E-1,1.020347084E1
1.588307450E1,-1.004276596E1,-1.905687103E0,1.027912445E0,1.027352887E1
1.589299550E1,-1.007614655E1,-2.149829407E0,1.143472137E0,1.036619623E1
1.590291550E1,-9.990524597E0,-2.308499451E0,1.167871399E0,1.032006178E1
1.591283650E1,-9.745184784E0,-2.370470581E0,1.080004120E0,1.008732701E1
1.592275750E1,-9.309291229E0,-2.218087463E0,8.913963318E-1,9.611316383E0
1.593267750E1,-8.725355530E0,-1.932032318E0,6.902146912E-1,8.963312687E0
1.594259850E1,-8.287216644E0,-1.631756744E0,5.108876038E-1,8.461772623E0
1.595251950E1,-8.134983215E0,-1.400787048E0,3.381468201E-1,8.261628141E0
1.596243950E1,-8.057145081E0,-1.228195953E0,2.528242493E-1,8.154138351E0
1.597236050E1,-8.019273834E0,-9.939331055E-1,2.465373230E-1,8.084394628E0
1.598228150E1,-7.959098969E0,-7.165599060E-1,3.995191956E-1,8.001270529E0
1.599220250E1,-7.918233948E0,-3.969744873E-1,5.761518860E-1,7.949086022E0
1.600212250E1,-8.089178467E0,-8.098159790E-2,9.626481628E-1,8.146659301E0
1.601204350E1,-8.326285400E0,3.353027344E-1,1.494342499E0,8.465962201E0
1.602196450E1,-8.369246063E0,6.506968689E-1,2.169139252E0,8.670227862E0
1.603188450E1,-8.233179016E0,7.132667542E-1,2.982248383E0,8.785658290E0
1.604180550E1,-8.013435974E0,6.634204102E-1,3.807182922E0,8.896624335E0
1.605172650E1,-7.920479279E0,6.936575317E-1,4.487518158E0,9.129784882E0
1.606164650E1,-7.855065308E0,8.180488586E-1,5.049299927E0,9.373723096E0
1.607156750E1,-7.735014954E0,1.023421783E0,5.394931183E0,9.485943862E0
1.608148850E1,-7.661218414E0,1.034498749E0,5.489085388E0,9.481271732E0
1.609140850E1,-7.419022064E0,9.334588623E-1,5.349276123E0,9.193910424E0
1.610132950E1,-7.152875519E0,6.456074524E-1,4.999303894E0,8.750627212E0
1.611125050E1,-7.074588318E0,2.457888794E-1,4.428989868E0,8.350219356E0
1.612117150E1,-7.038213959E0,-1.354682922E-1,3.657943268E0,7.933180720E0
1.613109150E1,-7.126679993E0,-4.869374084E-1,3.105591888E0,7.789183316E0
1.614101250E1,-7.447462921E0,-6.087840271E-1,2.844235382E0,7.995310930E0
1.615093350E1,-7.924670563E0,-5.287005615E-1,2.709066467E0,8.391601095E0
1.616085350E1,-8.399632874E0,-5.114863586E-1,2.650837555E0,8.822833470E0
1.617077450E1,-8.797206116E0,-4.308041382E-1,2.525697784E0,9.162727593E0
1.618069550E1,-8.981173553E0,-2.647993469E-1,2.349214783E0,9.287109733E0
1.619061550E1,-9.034462738E0,-3.532653809E-2,2.196532288E0,9.297715796E0
1.620053650E1,-9.001680908E0,2.850073242E-1,2.143841858E0,9.257837018E0
1.621045750E1,-8.981472931E0,5.836363220E-1,2.208058319E0,9.267308612E0
1.622037850E1,-9.028624878E0,8.158035278E-1,2.420167236E0,9.382899980E0
1.623029850E1,-9.156758423E0,1.021176453E0,2.744393005E0,9.613569531E0
1.624021950E1,-9.344318390E0,1.256337433E0,3.212918701E0,9.960798989E0
1.625014050E1,-9.652976532E0,1.560953979E0,3.875740356E0,1.051845505E1
1.626006050E1,-1.003932312E1,1.926044769E0,4.716990967E0,1.125822637E1
1.626998150E1,-1.040591080E1,2.220482483E0,5.626948700E0,1.203644772E1
1.627990250E1,-1.061143341E1,2.354902954E0,6.491251373E0,1.266034878E1
1.628982250E1,-1.062056442E1,2.467019806E0,7.228168945E0,1.308162840E1
1.629974350E1,-1.051263885E1,2.670596466E0,7.806566162E0,1.336376206E1
1.630966450E1,-1.054572006E1,2.838247833E0,8.221952362E0,1.366998036E1
1.631958450E1,-1.057715469E1,2.960992584E0,8.526269531E0,1.390470966E1
1.632950550E1,-1.048853897E1,3.091521149E0,8.828640747E0,1.405389093E1
1.633942650E1,-1.023990601E1,3.145858154E0,8.995693359E0,1.398837366E1
1.634934750E1,-1.010608429E1,2.811453552E0,8.760233002E0,1.366670747E1
1.635926750E1,-1.031939072E1,1.999841309E0,8.205486603E0,1.333488659E1
1.636918850E1,-1.072759186E1,1.044078827E0,7.215295715E0,1.297042096E1
1.637910950E1,-1.124880798E1,2.640509033E-1,5.708529053E0,1.261715926E1
1.638902950E1,-1.183214493E1,-2.573149109E-1,3.945644989E0,1.247533482E1
1.639895050E1,-1.255514145E1,-4.463717651E-1,2.448907471E0,1.279953016E1
1.640887150E1,-1.316766769E1,-6.469546509E-1,1.311123505E0,1.324858738E1
1.641879150E1,-1.344578934E1,-1.061891785E0,5.316943359E-1,1.349813187E1
1.642871250E1,-1.311512695E1,-1.386865997E0,4.415817261E-2,1.318832447E1
1.643863350E1,-1.217238739E1,-1.568288727E0,-2.659968567E-1,1.227588280E1
1.644855450E1,-1.078147980E1,-1.705403595E0,-4.282594299E-1,1.092392394E1
1.645847450E1,-9.344168701E0,-1.802701263E0,-4.245172119E-1,9.525934885E0
1.646839550E1,-8.089178467E0,-1.692530365E0,-3.791615295E-1,8.273042413E0
1.647831650E1,-7.191944275E0,-1.422791290E0,-3.376977539E-1,7.339103302E0
1.648823650E1,-6.695277100E0,-1.144969025E0,-2.704875183E-1,6.797856501E0
1.649815750E1,-6.453679504E0,-8.776249695E-1,-2.005828857E-1,6.516167449E0
1.650807850E1,-6.475384369E0,-6.253994751E-1,-1.227447510E-1,6.506672998E0
1.651799850E1,-6.915169830E0,-4.637356567E-1,3.607498169E-2,6.930795477E0
1.652791950E1,-7.632328491E0,-3.626957703E-1,1.667532349E-1,7.642760827E0
1.653784050E1,-8.389304352E0,-2.115101624E-1,1.701960754E-1,8.393695894E0
1.654776050E1,-9.107211456E0,-1.796264648E-3,1.044827271E-1,9.107810954E0
1.655768150E1,-9.752070465E0,2.508782959E-1,7.634124756E-3,9.755299921E0
1.656760250E1,-1.032762360E1,4.572990417E-1,-8.307723999E-2,1.033807687E1
1.657752350E1,-1.074600357E1,6.083349609E-1,-1.740879822E-1,1.076461661E1
1.658744350E1,-1.106708588E1,7.149133301E-1,-2.502795410E-1,1.109297664E1
1.659736450E1,-1.119956039E1,7.740403748E-1,-3.159928894E-1,1.123072317E1
1.660728550E1,-1.122725281E1,8.033793640E-1,-3.522175598E-1,1.126146887E1
1.661720550E1,-1.116962265E1,8.490344238E-1,-3.670367432E-1,1.120785642E1
1.662712650E1,-1.103205872E1,8.535250854E-1,-3.080593872E-1,1.106931458E1
1.663704750E1,-1.072729248E1,8.641529846E-1,-2.233355713E-1,1.076435986E1
1.664696750E1,-1.025412643E1,8.503816223E-1,-1.335223389E-1,1.029019368E1
1.665688850E1,-9.714049530E0,8.409512329E-1,-8.981323242E-3,9.750386552E0
1.666680950E1,-9.185798035E0,8.430468750E-1,1.417552185E-1,9.225492296E0
1.667672950E1,-8.795858917E0,8.322692871E-1,3.025209045E-1,8.840323815E0
1.668665050E1,-8.461005249E0,8.044271851E-1,4.399351501E-1,8.510537930E0
1.669657150E1,-8.156538391E0,7.951464844E-1,5.495072937E-1,8.213606682E0
1.670649250E1,-8.021968231E0,7.737409973E-1,6.072871399E-1,8.082044735E0
1.671641250E1,-8.036787415E0,7.467970276E-1,6.412664795E-1,8.096843857E0
1.672633350E1,-8.092621307E0,7.232958984E-1,6.828799438E-1,8.153526942E0
1.673625450E1,-8.148305511E0,7.182064819E-1,6.933581543E-1,8.209229488E0
1.674617450E1,-8.213270416E0,7.303312683E-1,6.891668701E-1,8.274427211E0
1.675609550E1,-8.237220612E0,7.381150818E-1,6.997947693E-1,8.299778913E0
1.676601650E1,-8.234526215E0,7.256909180E-1,7.075785828E-1,8.296669015E0
1.677593650E1,-8.232280884E0,7.358697510E-1,6.722520447E-1,8.292398667E0
1.678585750E1,-8.297844543E0,6.996450806E-1,6.376739502E-1,8.351667820E0
1.679577850E1,-8.435857544E0,6.786886597E-1,6.984475708E-1,8.491886705E0
1.680569850E1,-8.616232452E0,6.885681152E-1,7.842192078E-1,8.679204312E0
1.681562004E1,-8.725804596E0,7.288343811E-1,8.768765259E-1,8.799987377E0
1.682554104E1,-8.896749115E0,7.424560547E-1,9.865983582E-1,8.982024389E0
1.683546204E1,-9.058862000E0,7.569758606E-1,1.091829529E0,9.155767849E0
1.684538204E1,-9.193581848E0,8.002359009E-1,1.197809143E0,9.305754748E0
1.685530304E1,-9.376950531E0,8.711883545E-1,1.322948914E0,9.509803586E0
1.686522404E1,-9.689500580E0,9.518705750E-1,1.486259308E0,9.848931201E0
1.687514404E1,-9.986183624E0,1.052910461E0,1.730850677E0,1.018961863E1
1.688506504E1,-1.029035110E1,1.146615601E0,2.028581543E0,1.055088604E1
1.689498604E1,-1.064750839E1,1.248254242E0,2.420017548E0,1.099018010E1
1.690490604E1,-1.088581284E1,1.426234131E0,2.753823395E0,1.131894908E1
1.691482704E1,-1.103804626E1,1.612446899E0,3.004851379E0,1.155281707E1
1.692474804E1,-1.120569763E1,1.789678345E0,3.122506714E0,1.176947986E1
1.693466804E1,-1.129790588E1,1.977238312E0,3.178490295E0,1.190188847E1
1.694458904E1,-1.148441803E1,2.099084930E0,3.293750610E0,1.213040841E1
1.695451004E1,-1.163485519E1,2.203417969E0,3.390599213E0,1.231751067E1
1.696443104E1,-1.169218597E1,2.271226959E0,3.444936218E0,1.239892214E1
1.697435104E1,-1.163006516E1,2.302062836E0,3.441792755E0,1.234519527E1
1.698427204E1,-1.154953262E1,2.328108673E0,3.371738434E0,1.225481187E1
1.699419304E1,-1.154803574E1,2.394720154E0,3.305426331E0,1.224816955E1
1.700411304E1,-1.148172363E1,2.608026581E0,3.292702789E0,1.222594258E1
1.701403404E1,-1.171493866E1,2.764900360E0,3.188669128E0,1.245199071E1
1.702395504E1,-1.230980164E1,2.789898376E0,2.998714142E0,1.297332015E1
1.703387504E1,-1.285481827E1,2.591411133E0,2.640658722E0,1.337665290E1
1.704379604E1,-1.322065750E1,2.284249878E0,2.085463257E0,1.357765588E1
1.705371704E1,-1.342558136E1,2.011517029E0,1.413211212E0,1.364879487E1
1.706363804E1,-1.357452164E1,1.837728424E0,8.400531006E-1,1.372408732E1
1.707355804E1,-1.360655502E1,1.681752777E0,4.432283020E-1,1.371725495E1
1.708347904E1,-1.320718552E1,1.456022186E0,8.053253174E-2,1.328744653E1
1.709340004E1,-1.216894455E1,1.175804901E0,-2.960842896E-1,1.222920253E1
1.710332004E1,-1.086470673E1,8.521778870E-1,-5.998027039E-1,1.091456929E1
1.711324104E1,-1.043674667E1,3.736230469E-1,-7.638615417E-1,1.047133037E1
1.712316204E1,-9.758656769E0,-1.285826111E-1,-7.479945374E-1,9.788126033E0
1.713308204E1,-8.878337402E0,-4.796026611E-1,-4.932243347E-1,8.904951655E0
1.714300304E1,-8.358169098E0,-7.875123596E-1,-1.330732727E-1,8.396241712E0
1.715292404E1,-8.341703339E0,-1.078357544E0,2.059716797E-1,8.413637377E0
1.716284404E1,-8.665629730E0,-1.395547943E0,4.326004028E-1,8.787936947E0
1.717276504E1,-9.050329742E0,-1.657353516E0,5.855822754E-1,9.219446606E0
1.718268604E1,-9.483229523E0,-1.968256989E0,6.833290100E-1,9.709408648E0
1.719260604E1,-9.925859070E0,-2.327958984E0,6.577322388E-1,1.021639286E1
1.720252704E1,-1.031759445E1,-2.645149384E0,5.180726624E-1,1.066386280E1
1.721244804E1,-1.047357010E1,-2.821782074E0,3.480262756E-1,1.085261475E1
1.722236904E1,-1.016551071E1,-2.812501373E0,1.472937012E-1,1.054843436E1
1.723228904E1,-1.037342834E1,-2.963237915E0,-3.951782227E-2,1.078843623E1
1.724221004E1,-9.813143463E0,-2.766696625E0,-1.987866211E-1,1.019764242E1
1.725213104E1,-9.496551819E0,-2.560874634E0,-3.194357300E-1,9.840966138E0
1.726205104E1,-9.236991577E0,-2.469115448E0,-3.502716064E-1,9.567718364E0
1.727197204E1,-8.847651215E0,-2.348616028E0,-3.396437073E-1,9.160365010E0
1.728189304E1,-8.517437897E0,-2.223625946E0,-3.167413330E-1,8.808608616E0
1.729181304E1,-8.286617889E0,-2.149080963E0,-1.766326904E-1,8.562580460E0
1.730173404E1,-7.981252899E0,-1.902094574E0,1.766326904E-2,8.204795768E0
1.731165504E1,-7.786358185E0,-1.636995850E0,1.471440125E-1,7.957938210E0
1.732157504E1,-7.722890167E0,-1.456171875E0,2.917433167E-1,7.864387022E0
1.733149604E1,-7.674540710E0,-1.321152649E0,4.695735168E-1,7.801571555E0
1.734141704E1,-7.555538177E0,-1.216220856E0,6.800358582E-1,7.682955101E0
1.735133804E1,-7.434290314E0,-1.111139374E0,8.390052795E-1,7.563546327E0
1.736125804E1,-7.394323425E0,-1.073118439E0,8.827143860E-1,7.523748187E0
1.737117904E1,-7.502548370E0,-1.060544586E0,9.195378113E-1,7.632727996E0
1.738110004E1,-7.620203705E0,-9.602531433E-1,9.199868774E-1,7.735371126E0
1.739102004E1,-7.766150208E0,-7.909552002E-1,8.610095215E-1,7.853663895E0
1.740094104E1,-7.986791382E0,-6.761439514E-1,7.473957825E-1,8.050130910E0
1.741086204E1,-8.137228546E0,-5.381309509E-1,6.005511475E-1,8.177085973E0
1.742078204E1,-8.288713531E0,-3.607498169E-1,4.752616882E-1,8.310161618E0
1.743070304E1,-8.421337738E0,-1.784289551E-1,3.436853027E-1,8.430236401E0
1.744062404E1,-8.529412994E0,7.918533325E-2,2.032772827E-1,8.532202412E0
1.745054404E1,-8.696764984E0,3.710783386E-1,1.079255676E-1,8.705347107E0
1.746046504E1,-8.920100555E0,6.093827820E-1,1.239422607E-1,8.941750554E0
1.747038604E1,-9.175768890E0,8.202941895E-1,2.692900085E-1,9.216297217E0
1.748030704E1,-9.420659637E0,1.032852173E0,4.914280701E-1,9.489842631E0
1.749022704E1,-9.581724701E0,1.245859222E0,8.065228271E-1,9.695983319E0
1.750014804E1,-9.734556885E0,1.364263000E0,1.015787659E0,9.882036017E0
1.751006904E1,-9.769134979E0,1.462009735E0,1.073866882E0,9.936129065E0
1.751998904E1,-9.790989532E0,1.667232971E0,1.340013428E0,1.002191488E1
1.752991004E1,-9.658215637E0,2.068548431E0,1.859133911E0,1.005069156E1
1.753983104E1,-9.650880890E0,2.592908020E0,2.571801910E0,1.031876151E1
1.754975104E1,-9.876162415E0,3.173101501E0,3.560645599E0,1.096746800E1
1.755967204E1,-1.040291702E1,3.821852417E0,5.004692688E0,1.216035309E1
1.756959304E1,-1.105885300E1,4.624483337E0,6.715335388E0,1.373971634E1
1.757951304E1,-1.142708725E1,5.203778687E0,7.488178253E0,1.461952288E1
1.758943404E1,-1.121632553E1,5.004842377E0,6.328839111E0,1.381696820E1
1.759935504E1,-1.201222046E1,4.344116364E0,4.620591431E0,1.358361706E1
1.760927504E1,-1.251277954E1,4.005819855E0,3.543431396E0,1.360779742E1
1.761919604E1,-1.215711914E1,3.998036041E0,3.192710724E0,1.318989157E1
1.762911704E1,-1.193557983E1,4.133953400E0,3.107986908E0,1.300796753E1
1.763903804E1,-1.191926376E1,4.152365112E0,2.670297089E0,1.290121976E1
1.764895804E1,-1.205892334E1,3.933520203E0,1.866019592E0,1.282077386E1
1.765887904E1,-1.227567261E1,3.477119293E0,1.258882141E0,1.282058036E1
1.766880004E1,-1.247715363E1,2.922672272E0,8.428971863E-1,1.284257963E1
1.767872004E1,-1.282682648E1,2.562521210E0,3.224295044E-1,1.308426357E1
1.768864104E1,-1.323577606E1,2.284399567E0,-3.457809448E-2,1.343150941E1
1.769856204E1,-1.361044693E1,1.973196716E0,-4.236190796E-2,1.375280209E1
1.770848204E1,-1.353605164E1,1.648372192E0,2.914439392E-1,1.363916289E1
1.771840304E1,-1.282952087E1,1.286574554E0,1.042432251E0,1.293594005E1
1.772832404E1,-1.165461411E1,9.475296021E-1,1.952240295E0,1.185491815E1
1.773824404E1,-1.043689636E1,8.000862122E-1,2.181862793E0,1.069249591E1
1.774816504E1,-9.669591980E0,7.384144592E-1,1.600322113E0,9.828901049E0
1.775808604E1,-9.281748505E0,6.976991272E-1,8.559201050E-1,9.347204855E0
1.776800704E1,-9.121132507E0,7.077282715E-1,3.186872864E-1,9.154097395E0
1.777792704E1,-8.970695343E0,7.307803345E-1,5.777984619E-2,9.000597388E0
1.778784804E1,-8.716823273E0,6.601272583E-1,9.175918579E-2,8.742264907E0
1.779776904E1,-8.623417511E0,5.420228577E-1,1.710942078E-1,8.642128880E0
1.780768950E1,-8.720565491E0,4.707710266E-1,1.731898499E-1,8.734980398E0
1.781761050E1,-8.887917480E0,4.102967834E-1,1.022373962E-1,8.897970166E0
1.782753150E1,-9.080866241E0,3.661386108E-1,-3.592529297E-3,9.088245270E0
1.783745150E1,-9.299262085E0,2.820135498E-1,-1.119671631E-1,9.304211069E0
1.784737250E1,-9.550439758E0,1.766326904E-1,-2.427951050E-1,9.555158196E0
1.785729350E1,-9.778265991E0,1.169068909E-1,-3.767665100E-1,9.786220211E0
1.786721350E1,-9.915380859E0,1.067280579E-1,-4.788542175E-1,9.927510757E0
1.787713450E1,-9.986183624E0,4.056564331E-2,-5.505551147E-1,1.000143089E1
1.788705550E1,-9.917326813E0,-1.076261902E-1,-5.731581116E-1,9.934458452E0
1.789697650E1,-9.793983307E0,-2.276765442E-1,-5.864804077E-1,9.814168579E0
1.790689650E1,-9.675429840E0,-3.240760803E-1,-5.962101746E-1,9.699197620E0
1.791681750E1,-9.564809875E0,-4.620890808E-1,-5.900729370E-1,9.594128431E0
1.792673850E1,-9.383686523E0,-6.090834045E-1,-5.694158936E-1,9.420657611E0
1.793665850E1,-9.181906128E0,-7.229965210E-1,-5.257067871E-1,9.225317975E0
1.794657950E1,-9.028475189E0,-7.927514648E-1,-5.125341797E-1,9.077693012E0
1.795650050E1,-8.903185730E0,-8.647517395E-1,-4.743635559E-1,8.957652175E0
1.796642050E1,-8.805289307E0,-9.452842712E-1,-4.534071350E-1,8.867483305E0
1.797634150E1,-8.624165955E0,-9.698332214E-1,-3.980223083E-1,8.687648511E0
1.798626250E1,-8.474926300E0,-9.889933777E-1,-3.149450684E-1,8.538247718E0
1.799618250E1,-8.389903107E0,-1.029409332E0,-2.634521484E-1,8.456924071E0
1.800610350E1,-8.286917267E0,-1.054107971E0,-1.781295776E-1,8.355589240E0
1.801602450E1,-8.238118744E0,-1.062191162E0,-6.900650024E-2,8.306600532E0
1.802594450E1,-8.254285126E0,-1.062490540E0,1.691482544E-2,8.322403210E0
1.803586550E1,-8.189769287E0,-1.015338593E0,6.017486572E-2,8.252687711E0
1.804578650E1,-8.172704773E0,-8.933422852E-1,4.520599365E-2,8.221508823E0
1.805570750E1,-8.256979523E0,-8.204438782E-1,-1.796264648E-2,8.297660011E0
1.806562750E1,-8.371790771E0,-8.033793640E-1,-5.179229736E-2,8.410409120E0
1.807554850E1,-8.469238129E0,-7.560777283E-1,-7.334747314E-2,8.503236317E0
1.808546950E1,-8.581055603E0,-6.972500610E-1,-7.020401001E-2,8.609622612E0
1.809538950E1,-8.676706696E0,-6.245013428E-1,-5.583389282E-2,8.699330919E0
1.810531050E1,-8.717571716E0,-5.502557373E-1,-4.715194702E-2,8.735047871E0
1.811523150E1,-8.772507477E0,-4.505630493E-1,-3.951782227E-2,8.784159388E0
1.812515150E1,-8.919801178E0,-3.613485718E-1,-3.891906738E-2,8.927202279E0
1.813507250E1,-9.099727020E0,-2.634521484E-1,-9.729766846E-3,9.103545109E0
1.814499350E1,-9.298813019E0,-1.553768921E-1,4.161346436E-2,9.300204149E0
1.815491350E1,-9.493558044E0,-4.445755005E-2,1.276844788E-1,9.494520743E0
1.816483450E1,-9.637558594E0,7.035369873E-2,2.300715637E-1,9.640561094E0
1.817475550E1,-9.889784088E0,1.793270874E-1,3.357518005E-1,9.897106486E0
1.818467550E1,-1.016116974E1,2.865042114E-1,4.535568237E-1,1.017532156E1
1.819459650E1,-1.042162811E1,4.067042542E-1,5.442681885E-1,1.044375262E1
1.820451750E1,-1.070468948E1,5.322930908E-1,6.357279968E-1,1.073675291E1
1.821443850E1,-1.102666992E1,6.206094360E-1,7.499404907E-1,1.106955358E1
1.822435850E1,-1.140538239E1,6.866221619E-1,8.985813904E-1,1.146131083E1
1.823427950E1,-1.186507645E1,7.602690125E-1,1.143771515E0,1.194429828E1
1.824420050E1,-1.229588058E1,8.933422852E-1,1.666334839E0,1.244039435E1
1.825412050E1,-1.253298752E1,1.146765289E0,2.389031982E0,1.281008667E1
1.826404150E1,-1.247760269E1,1.403032379E0,3.055595856E0,1.292268296E1
1.827396250E1,-1.250484604E1,1.592089233E0,3.861220551E0,1.318388967E1
1.828388250E1,-1.295466064E1,1.830693054E0,4.845124512E0,1.395169886E1
1.829380350E1,-1.296903076E1,2.165546722E0,5.712121582E0,1.433574848E1
1.830372450E1,-1.284104691E1,2.533331909E0,7.131170654E0,1.490516189E1
1.831364450E1,-1.264929565E1,3.024011536E0,9.477241974E0,1.609246537E1
1.832356550E1,-1.195444061E1,3.478466492E0,1.143906235E1,1.690741041E1
1.833348650E1,-1.136646332E1,3.957769775E0,1.259720398E1,1.742268573E1
1.834340650E1,-1.134610565E1,3.833378448E0,9.720635834E0,1.542464472E1
1.835332750E1,-1.272204437E1,2.772235107E0,5.102888489E0,1.398481932E1
1.836324850E1,-1.400966675E1,1.782343597E0,2.267335052E0,1.430343733E1
1.837316950E1,-1.412477737E1,1.126407623E0,8.976832581E-1,1.419802681E1
1.838308950E1,-1.291918442E1,7.520361328E-1,3.171903992E-1,1.294494087E1
1.839301050E1,-1.194186676E1,3.471281433E-1,-3.610491943E-1,1.195236530E1
1.840293150E1,-1.081830322E1,-7.005432129E-2,-8.801696777E-1,1.085427524E1
1.841285150E1,-9.377549286E0,-3.763174438E-1,-1.210532684E0,9.462844964E0
1.842277250E1,-8.931626587E0,-8.258326721E-1,-1.263672180E0,9.058301191E0
1.843269350E1,-8.362061005E0,-1.016985168E0,-9.351054382E-1,8.475420064E0
1.844261350E1,-8.132438507E0,-1.081201630E0,-3.805087280E-1,8.212815591E0
1.845253450E1,-8.283624115E0,-1.164129181E0,7.978408813E-2,8.365404397E0
1.846245550E1,-8.608897705E0,-1.277293854E0,3.782633972E-1,8.711353654E0
1.847237550E1,-8.925788727E0,-1.429227905E0,5.634283447E-1,9.057033085E0
1.848229650E1,-9.173523560E0,-1.624721375E0,6.147715759E-1,9.336551726E0
1.849221750E1,-9.434580688E0,-1.878443756E0,5.863307190E-1,9.637616273E0
1.850213750E1,-9.535321198E0,-2.110461273E0,4.816983032E-1,9.777956350E0
1.851205850E1,-9.402696991E0,-2.169438629E0,3.564088440E-1,9.656303741E0
1.852197950E1,-9.931397552E0,-2.615660706E0,3.043171692E-1,1.027457771E1
1.853190050E1,-9.492659912E0,-2.664309540E0,1.927990723E-1,9.861354319E0
1.854182050E1,-9.352251892E0,-2.656825104E0,9.086105347E-2,9.722735768E0
1.855174150E1,-9.389823761E0,-2.586621094E0,-7.185058594E-3,9.739581642E0
1.856166250E1,-9.261241150E0,-2.441572723E0,-1.182540894E-1,9.578405349E0
1.857158250E1,-9.180109863E0,-2.311792603E0,-2.273771667E-1,9.469451014E0
1.858150350E1,-9.061257019E0,-2.212399292E0,-3.094065857E-1,9.332567805E0
1.859142450E1,-8.925189972E0,-2.083217926E0,-4.050576782E-1,9.174033174E0
1.860134450E1,-8.766519928E0,-1.972897339E0,-4.945715332E-1,8.999377565E0
1.861126550E1,-8.597521362E0,-1.832788696E0,-5.375321960E-1,8.807123755E0
1.862118650E1,-8.423134003E0,-1.675765228E0,-5.646258545E-1,8.606751878E0
1.863110650E1,-8.182284851E0,-1.492097168E0,-5.715115356E-1,8.336831819E0
1.864102750E1,-7.945776672E0,-1.291514282E0,-5.228627014E-1,8.067016888E0
1.865094850E1,-7.831414490E0,-1.110839996E0,-4.501139832E-1,7.922601909E0
1.866086850E1,-7.749534760E0,-9.747729492E-1,-3.625460815E-1,7.819009589E0
1.867078950E1,-7.731721802E0,-8.547225952E-1,-3.059637451E-1,7.784836963E0
1.868071050E1,-7.790100403E0,-7.373666382E-1,-2.621049500E-1,7.829308581E0
1.869063150E1,-7.913593597E0,-5.950126648E-1,-2.308200073E-1,7.939287221E0
1.870055150E1,-8.111332397E0,-4.408332825E-1,-2.224374390E-1,8.126347621E0
1.871047250E1,-8.349487152E0,-2.951861572E-1,-2.146536255E-1,8.357460544E0
1.872039350E1,-8.601113892E0,-1.264869690E-1,-2.429447937E-1,8.605473915E0
1.873031350E1,-8.785829773E0,6.646179199E-2,-2.932402039E-1,8.790973313E0
1.874023450E1,-8.925040283E0,2.697390747E-1,-3.418890381E-1,8.935658417E0
1.875015550E1,-9.059760132E0,5.013075256E-1,-3.549119568E-1,9.080557548E0
1.876007550E1,-9.209448853E0,7.399113464E-1,-3.700305176E-1,9.246531217E0
1.876999650E1,-9.369915161E0,9.472302246E-1,-3.600013733E-1,9.424550717E0
1.877991750E1,-9.529183960E0,1.072220306E0,-2.787203979E-1,9.593366895E0
1.878983750E1,-9.700427856E0,1.176253967E0,-1.886077881E-1,9.773302763E0
1.879975850E1,-9.857750702E0,1.305585022E0,8.681945801E-3,9.943836107E0
1.880967862E1,-1.007809250E1,1.496138763E0,2.743794250E-1,1.019223546E1
1.881959863E1,-1.039857605E1,1.716181183E0,5.891748047E-1,1.055569935E1
1.882951963E1,-1.076875626E1,2.047891388E0,1.320553894E0,1.104100688E1
1.883944063E1,-1.111513596E1,2.691852264E0,2.960094452E0,1.181331770E1
1.884936163E1,-1.136975647E1,3.837270355E0,5.926625519E0,1.338360549E1
1.885928163E1,-1.146870071E1,4.652026062E0,8.810528412E0,1.519203256E1
1.886920263E1,-1.087997498E1,4.858147430E0,1.022703278E1,1.570247278E1
1.887912362E1,-1.015787659E1,5.099894714E0,1.112052475E1,1.590149218E1
1.888904362E1,-9.970316620E0,5.105582886E0,1.236862930E1,1.668703631E1
1.889896462E1,-9.494306488E0,4.914729767E0,1.308608734E1,1.689799119E1
1.890888562E1,-9.407487030E0,4.669240265E0,1.251248016E1,1.633599635E1
1.891880563E1,-9.656269684E0,4.291276245E0,1.053778656E1,1.492325506E1
1.892872663E1,-1.036654266E1,3.479364624E0,7.470814362E0,1.324327196E1
1.893864763E1,-1.136242172E1,2.273771667E0,4.325255585E0,1.236860950E1
1.894856763E1,-1.237072495E1,1.045126648E0,1.710193634E0,1.253203446E1
1.895848863E1,-1.335163513E1,3.390449524E-1,-1.975891113E-2,1.335595383E1
1.896840962E1,-1.361418915E1,3.176394653E-1,-7.572752380E-1,1.363893349E1
1.897832962E1,-1.403915543E1,3.442840576E-2,-6.447093201E-1,1.405399304E1
1.898825062E1,-1.382315460E1,-4.733157349E-1,-3.549119568E-1,1.383580838E1
1.899817162E1,-1.217433334E1,-6.280938721E-1,-1.258882141E-1,1.219117476E1
1.900809163E1,-1.088626190E1,-6.735992432E-1,-1.317260742E-2,1.090708979E1
1.901801263E1,-9.799222412E0,-6.956034851E-1,6.601272583E-2,9.824102085E0
1.902793363E1,-9.188342743E0,-6.954537964E-1,1.577719116E-1,9.215974735E0
1.903785463E1,-8.820557556E0,-6.101312256E-1,1.736389160E-1,8.843339086E0
1.904777463E1,-8.474177856E0,-4.731660461E-1,1.193019104E-1,8.488215914E0
1.905769563E1,-8.214168549E0,-3.641926575E-1,1.062789917E-2,8.222245082E0
1.906761662E1,-8.085136871E0,-2.909948730E-1,-9.056167603E-2,8.090878671E0
1.907753662E1,-8.203241272E0,-2.718347168E-1,-1.469943237E-1,8.209060166E0
1.908745762E1,-8.583450623E0,-2.930905151E-1,-1.874102783E-1,8.590497614E0
1.909737862E1,-9.029523010E0,-2.661465454E-1,-2.469863892E-1,9.036820351E0
1.910729863E1,-9.332642670E0,-1.845661926E-1,-2.561174011E-1,9.337980510E0
1.911721963E1,-9.600435791E0,-1.026864624E-1,-2.758763123E-1,9.604947664E0
1.912714063E1,-9.808652802E0,1.047821045E-3,-2.984793091E-1,9.813193200E0
1.913706063E1,-9.947414246E0,1.237925720E-1,-3.474275208E-1,9.954249377E0
1.914698163E1,-1.006177643E1,1.924996948E-1,-3.658392334E-1,1.007026511E1
1.915690262E1,-1.003004242E1,2.818638611E-1,-3.782633972E-1,1.004112949E1
1.916682262E1,-9.941426697E0,3.710783386E-1,-3.858975220E-1,9.955831497E0
1.917674362E1,-9.848170624E0,4.351451111E-1,-3.863465881E-1,9.865347413E0
1.918666462E1,-9.680818634E0,5.104385376E-1,-3.861968994E-1,9.701955729E0
1.919658563E1,-9.453890533E0,5.806425476E-1,-3.643423462E-1,9.478709687E0
1.920650563E1,-9.196875000E0,6.065386963E-1,-3.041674805E-1,9.221871654E0
1.921642663E1,-9.044342194E0,6.521937561E-1,-1.862127686E-1,9.069738563E0
1.922634763E1,-8.888665924E0,6.768923950E-1,-4.311035156E-2,8.914506365E0
1.923626763E1,-8.724756775E0,6.487509155E-1,7.738906860E-2,8.749185539E0
1.924618862E1,-8.630901947E0,5.924679565E-1,1.812730408E-1,8.653111961E0
1.925610962E1,-8.497678986E0,5.406756592E-1,2.656974792E-1,8.519006601E0
1.926602962E1,-8.378526764E0,5.141807556E-1,3.203338623E-1,8.400399179E0
1.927595062E1,-8.286468201E0,5.495072937E-1,4.213737488E-1,8.315351426E0
1.928587163E1,-8.293503571E0,5.393284607E-1,4.881349182E-1,8.325343979E0
1.929579163E1,-8.355774078E0,5.126838684E-1,5.499563599E-1,8.389532597E0
1.930571263E1,-8.393196259E0,4.287084961E-1,6.077362061E-1,8.426083177E0
1.931563363E1,-8.406668243E0,3.038681030E-1,6.457571411E-1,8.436907553E0
1.932555363E1,-8.403973846E0,1.806742859E-1,6.544390869E-1,8.431352805E0
1.933547462E1,-8.340505829E0,7.903564453E-2,6.715036011E-1,8.367867183E0
1.934539562E1,-8.282875671E0,4.026626587E-2,6.956034851E-1,8.312130591E0
1.935531562E1,-8.289911041E0,4.056564331E-2,7.098239136E-1,8.320343781E0
1.936523662E1,-8.360264740E0,1.751358032E-2,7.072792053E-1,8.390147622E0
1.937515763E1,-8.491990814E0,-4.340972900E-2,7.301815796E-1,8.523435782E0
1.938507863E1,-8.661438446E0,-8.083190918E-2,7.352709961E-1,8.692966881E0
