"Time (s)","Acceleration x (m/s^2)","Acceleration y (m/s^2)","Acceleration z (m/s^2)","Absolute acceleration (m/s^2)"
2.396916621E-3,-3.640429688E0,5.050347748E0,6.924001465E0,9.311312312E0
1.231791661E-2,-3.609444122E0,5.003046112E0,6.947053528E0,9.290861639E0
2.223891660E-2,-3.516337738E0,5.050946503E0,7.154073029E0,9.437025620E0
3.215991659E-2,-3.426374817E0,5.177134094E0,7.433841248E0,9.685285618E0
4.208091658E-2,-3.321592712E0,5.250481567E0,7.678282928E0,9.877072621E0
5.200191657E-2,-3.250340881E0,5.232219543E0,7.823930054E0,9.957646242E0
6.192291668E-2,-3.235671387E0,5.160368958E0,7.882907410E0,9.961887689E0
7.184391667E-2,-3.233875122E0,5.078638916E0,7.849077759E0,9.892347710E0
8.176491666E-2,-3.309916992E0,5.031187592E0,7.799979858E0,9.854343452E0
9.168591665E-2,-3.395688629E0,5.009183350E0,7.720794525E0,9.809856635E0
1.016069166E-1,-3.421285400E0,4.995711365E0,7.636669464E0,9.745821994E0
1.115279166E-1,-3.380570068E0,4.956941986E0,7.572153625E0,9.661109583E0
1.214489166E-1,-3.318898315E0,4.927303619E0,7.512278137E0,9.577459465E0
1.313699166E-1,-3.281625824E0,4.919370117E0,7.453151093E0,9.514133256E0
1.412909166E-1,-3.235671387E0,4.934488678E0,7.377558289E0,9.447069077E0
1.512119166E-1,-3.179388428E0,4.881798248E0,7.328011322E0,9.361635266E0
1.611329166E-1,-3.237018585E0,4.784201202E0,7.341932373E0,9.341886396E0
1.710539166E-1,-3.338208160E0,4.680017853E0,7.430099030E0,9.394284029E0
1.809749167E-1,-3.404520264E0,4.570595398E0,7.608228607E0,9.506116087E0
1.908959167E-1,-3.381019135E0,4.459975433E0,7.808063049E0,9.606691409E0
2.008169167E-1,-3.289559326E0,4.388274536E0,7.968080292E0,9.673079008E0
2.107379166E-1,-3.171754303E0,4.364324341E0,8.064330139E0,9.702616807E0
2.206589166E-1,-2.978356476E0,4.445755005E0,8.014783173E0,9.637016871E0
2.305799166E-1,-2.743045807E0,4.586013336E0,7.857160950E0,9.502146958E0
2.405009166E-1,-2.658172302E0,4.646337891E0,7.741750946E0,9.412175280E0
2.504219166E-1,-2.687361603E0,4.691693573E0,7.649243317E0,9.367220734E0
2.603429166E-1,-2.674787750E0,4.660857697E0,7.704029388E0,9.393090694E0
2.702639166E-1,-2.679128723E0,4.459077301E0,8.056546326E0,9.590048998E0
2.801849166E-1,-2.703977051E0,4.269122314E0,8.325237579E0,9.738915647E0
2.901059167E-1,-2.777174835E0,4.139342194E0,8.430319061E0,9.793729286E0
3.000269167E-1,-2.950214996E0,3.990551605E0,8.541238403E0,9.878310792E0
3.099479167E-1,-3.054398346E0,3.850143585E0,8.643924866E0,9.943359189E0
3.198689166E-1,-3.026107178E0,3.602408752E0,8.754395142E0,9.938516377E0
3.297899166E-1,-2.991229706E0,3.298091583E0,8.759783936E0,9.826427522E0
3.397109166E-1,-3.021915894E0,3.033441925E0,8.834478607E0,9.817421140E0
3.496319166E-1,-2.932551727E0,2.852468262E0,8.989855499E0,9.876939643E0
3.595519166E-1,-2.757266235E0,2.741399231E0,9.083410950E0,9.880594178E0
3.694729166E-1,-2.980751495E0,3.018922119E0,9.431137848E0,1.034142792E1
3.793949166E-1,-2.477348328E0,2.796484680E0,1.023317001E1,1.089382164E1
3.893159166E-1,-2.057770844E0,2.483186188E0,1.146795227E1,1.191278992E1
3.992352916E-1,-1.897154846E0,2.060165863E0,1.219514008E1,1.251259051E1
4.091572916E-1,-1.416654053E0,1.352886658E0,1.204590042E1,1.220413569E1
4.190772916E-1,-1.292711792E0,7.014413452E-1,1.154399414E1,1.163730744E1
4.289982916E-1,-1.321901093E0,1.049317932E-1,1.096739319E1,1.104726874E1
4.389192916E-1,-1.199006653E0,-2.800675964E-1,1.076725937E1,1.083743185E1
4.488402916E-1,-6.186634827E-1,-3.854484558E-1,1.080288528E1,1.082744871E1
4.587612916E-1,-4.180805969E-1,-4.023632813E-1,1.048255142E1,1.049859857E1
4.686822916E-1,-7.441026306E-1,-2.984793091E-1,1.023511597E1,1.026646860E1
4.786032917E-1,-1.237776031E0,-1.851649475E-1,1.006641678E1,1.014392046E1
4.885242917E-1,-1.691332855E0,-1.727407837E-1,9.703122253E0,9.850940446E0
4.984452917E-1,-2.189796295E0,-3.966751099E-2,9.664951630E0,9.909998553E0
5.083662916E-1,-2.781665497E0,2.930905151E-1,9.824819183E0,1.021521595E1
5.182872916E-1,-3.298091583E0,6.258485413E-1,9.789043579E0,1.034864574E1
5.282082916E-1,-3.579506378E0,8.443940735E-1,9.344468079E0,1.004215868E1
5.381292916E-1,-3.631448364E0,8.318202209E-1,8.588090973E0,9.361337974E0
5.480502916E-1,-3.904330902E0,8.533753967E-1,8.546627197E0,9.434876036E0
5.579712916E-1,-4.113146667E0,7.749385071E-1,9.118737488E0,1.003343802E1
5.678922916E-1,-4.184398499E0,2.926414490E-1,1.053883438E1,1.134292114E1
5.778132916E-1,-4.258644104E0,1.534309387E-1,1.107786346E1,1.186923121E1
5.877342916E-1,-3.430715790E0,4.399351501E-1,7.004084930E0,7.811565751E0
5.976552917E-1,-3.363655243E0,6.750961304E-1,5.013524323E0,6.074977984E0
6.075762917E-1,-4.571194153E0,2.047741699E-1,5.638624420E0,7.261668802E0
6.174972916E-1,-3.481160889E0,3.308120728E-1,5.359454956E0,6.399349591E0
6.274182916E-1,-3.057691498E0,1.351689148E0,6.685996399E0,7.475231682E0
6.373392916E-1,-3.316203918E0,1.101110229E0,5.535339203E0,6.545963050E0
6.472602916E-1,-3.454516296E0,1.311722260E0,4.340374146E0,5.700275945E0
6.571812916E-1,-3.622017975E0,1.690135345E0,4.262086945E0,5.843026341E0
6.671022916E-1,-4.960384827E0,2.349663849E0,5.278473358E0,7.615025858E0
6.770232916E-1,-5.926924896E0,2.826422424E0,5.704038391E0,8.697882295E0
6.869442916E-1,-7.723638611E0,3.658991089E0,7.673043823E0,1.148557403E1
6.968652916E-1,-7.970774689E0,3.701652374E0,9.094188538E0,1.264672861E1
7.067862917E-1,-5.794899445E0,2.259850616E0,9.326505432E0,1.121032952E1
7.167072917E-1,-2.795137482E0,7.753875732E-1,9.403894501E0,9.841100102E0
7.266282917E-1,-1.335522766E0,7.000941467E-1,9.236542511E0,9.358817790E0
7.365492916E-1,-6.017486572E-1,1.527274017E0,9.352102203E0,9.495076777E0
7.464702916E-1,9.268725586E-1,1.684297485E0,1.147843048E1,1.163831247E1
7.563912916E-1,1.584754486E0,1.812730408E-1,1.041953247E1,1.054091854E1
7.663122916E-1,1.378782806E0,-4.056564331E-2,8.944499817E0,9.050235609E0
7.762332916E-1,2.891986084E-1,4.541555786E-1,8.034392395E0,8.052412948E0
7.861542916E-1,-7.563771057E-1,8.746311951E-1,6.946903839E0,7.042482446E0
7.960752916E-1,-6.230044556E-1,9.758207703E-1,5.855373688E0,5.968732005E0
8.059962916E-1,7.330256653E-1,-9.026229858E-2,4.722080383E0,4.779489204E0
8.159172916E-1,8.957373047E-1,-3.706292725E-1,5.114414520E0,5.205472818E0
8.258382917E-1,3.990701294E-1,7.334747314E-3,6.703959045E0,6.715830377E0
8.357592917E-1,1.273252258E0,4.812492371E-1,9.307794342E0,9.406795823E0
8.456802916E-1,3.262166290E0,1.706451416E-2,9.791438599E0,1.032057605E1
8.556012916E-1,5.669160919E0,-1.037941589E0,8.321495361E0,1.012244997E1
8.655222916E-1,6.827751617E0,-1.212328949E0,7.028484192E0,9.873577045E0
8.754432916E-1,5.655539246E0,-1.057251434E0,6.153553619E0,8.424317593E0
8.853642916E-1,4.030069427E0,-2.647993469E-1,5.310207367E0,6.671572571E0
8.952852916E-1,2.042203217E0,6.251000977E-1,4.178560638E0,4.692729815E0
9.052062916E-1,5.231620789E-1,8.864566040E-1,3.121009827E0,3.286366719E0
9.151272916E-1,4.351451111E-1,2.600093079E-1,2.801424408E0,2.846916722E0
9.250482916E-1,1.530267792E0,-7.226971436E-1,3.289709015E0,3.699485921E0
9.349692917E-1,2.875220947E0,-1.602717133E0,4.635410614E0,5.685299400E0
9.448902917E-1,3.392096100E0,-1.770218811E0,6.198011169E0,7.283909187E0
9.548112917E-1,3.097209320E0,-1.112486572E0,7.363487549E0,8.065437423E0
9.647322916E-1,2.430495758E0,1.947450256E-1,1.003303619E1,1.032506903E1
9.746532916E-1,3.476071472E0,1.040935364E0,1.029109955E1,1.091207355E1
9.845742916E-1,5.207520905E0,1.362167358E-1,7.284900970E0,8.955814375E0
9.944952916E-1,4.808450775E0,-2.619552612E-2,5.874833221E0,7.591808114E0
1.004416292E0,3.355721741E0,3.908372498E-1,4.906197510E0,5.956878055E0
1.014337292E0,2.472857666E0,1.633103943E-1,4.408781891E0,5.057573834E0
1.024258292E0,1.857337646E0,4.589456177E-1,4.313430176E0,4.718687751E0
1.034179292E0,2.715503082E0,1.083896027E0,3.841311951E0,4.827469843E0
1.044100292E0,4.381688232E0,1.639091492E0,3.009192352E0,5.562468094E0
1.054021292E0,5.760471039E0,2.290536804E0,2.301464081E0,6.612588174E0
1.063942292E0,6.851701813E0,2.796035614E0,1.945055237E0,7.651592825E0
1.073863292E0,7.790399780E0,2.842139740E0,2.096989288E0,8.553680559E0
1.083784292E0,8.256979523E0,2.632725220E0,2.517464905E0,9.024776034E0
1.093705292E0,7.930658112E0,2.100881195E0,3.005899200E0,8.737532254E0
1.103626292E0,7.737859039E0,1.218166809E0,3.206332397E0,8.463980171E0
1.113547292E0,7.535629578E0,4.059558105E-1,3.389401703E0,8.272759948E0
1.123468292E0,8.550668793E0,-7.448510742E-1,3.816014557E0,9.393120196E0
1.133389292E0,1.042686722E1,-1.840273132E0,4.724475403E0,1.159425862E1
1.143310292E0,1.334415070E1,-2.502496033E0,5.514233093E0,1.465385993E1
1.153231292E0,1.691228073E1,-3.202141113E0,5.759423218E0,1.815075489E1
1.163152292E0,1.973735596E1,-4.078718262E0,5.490133209E0,2.088877032E1
1.173073292E0,2.155981613E1,-5.507497101E0,5.225034485E0,2.285736602E1
1.182994292E0,2.253698410E1,-6.974895630E0,5.307213593E0,2.418121869E1
1.192915292E0,2.335982300E1,-8.396489410E0,5.799689484E0,2.549154297E1
1.202836292E0,2.399614975E1,-9.563013611E0,6.720873871E0,2.669150760E1
1.212757292E0,2.427277451E1,-1.039198975E1,7.605234833E0,2.747727479E1
1.222678292E0,2.443563583E1,-1.087413712E1,7.787855072E0,2.785673784E1
1.232599292E0,2.441857132E1,-1.106933121E1,7.225624237E0,2.776700136E1
1.242520292E0,2.425196777E1,-1.089629105E1,6.387517090E0,2.734387452E1
1.252441292E0,2.387100998E1,-1.032343231E1,5.504353638E0,2.658375972E1
1.262362292E0,2.287288559E1,-9.488169250E0,4.717290344E0,2.520807567E1
1.272284292E0,2.117227203E1,-8.434660034E0,4.008514252E0,2.314037120E1
1.282204292E0,1.901780228E1,-6.890022125E0,3.347039795E0,2.050248482E1
1.292125292E0,1.652937698E1,-5.010530548E0,2.734214172E0,1.748718522E1
1.302046292E0,1.385219421E1,-3.350782013E0,2.042801971E0,1.439736311E1
1.311968292E0,1.110166397E1,-1.711989899E0,1.422491913E0,1.132260286E1
1.321889292E0,8.473130035E0,-5.194198608E-2,6.819818115E-1,8.500689958E0
1.331810292E0,6.198460236E0,1.340163116E0,-8.711883545E-2,6.342281621E0
1.341730292E0,4.431085510E0,2.403252411E0,-9.240284729E-1,5.124838492E0
1.351652292E0,2.923720093E0,3.163072357E0,-1.986069946E0,4.743167691E0
1.361573292E0,1.675166473E0,3.596870270E0,-3.209326172E0,5.103276685E0
1.371494292E0,8.681945801E-1,3.853586426E0,-4.031416626E0,5.644130596E0
1.381415292E0,2.607577515E-1,3.888912964E0,-4.630620575E0,6.052626335E0
1.391337125E0,-3.734733582E-1,3.559298401E0,-4.985831909E0,6.137312709E0
1.401258125E0,-7.676037598E-1,3.349135437E0,-4.909640350E0,5.992536364E0
1.411179125E0,-5.327421570E-1,3.276087341E0,-4.400848389E0,5.512170989E0
1.421100125E0,-5.263055420E-1,2.945275269E0,-3.673810272E0,4.737987531E0
1.431021125E0,2.968327332E-1,2.667303314E0,-2.770738220E0,3.857409354E0
1.440942125E0,9.138496399E-1,2.481090546E0,-1.869163055E0,3.238008954E0
1.450863125E0,1.852697296E0,2.236050110E0,-9.256750488E-1,3.047832289E0
1.460784125E0,3.168910217E0,2.183060303E0,-8.217910767E-2,3.848960594E0
1.470705125E0,4.102818146E0,2.304158478E0,5.688171387E-1,4.739811807E0
1.480626125E0,4.542004852E0,2.406246185E0,8.210426331E-1,5.205183934E0
1.490547125E0,4.673132172E0,2.460882568E0,6.427633667E-1,5.320456001E0
1.500468125E0,4.811444550E0,2.377655640E0,4.288581848E-1,5.383972914E0
1.510389125E0,4.951104126E0,2.335144043E0,2.234852600E-1,5.478711110E0
1.520310125E0,5.268144836E0,2.061363373E0,4.475692749E-2,5.657258360E0
1.530231125E0,5.773643646E0,1.270857239E0,-9.385482788E-2,5.912600765E0
1.540152125E0,6.200705566E0,-1.086740112E-1,-2.624043274E-1,6.207206746E0
1.550073125E0,6.681206360E0,-1.802551575E0,-6.547384644E-1,6.950999429E0
1.559994125E0,7.770940247E0,-3.663182373E0,-1.191372528E0,8.673279997E0
1.569915125E0,9.629924469E0,-5.248685303E0,-1.760189667E0,1.110776352E1
1.579836125E0,1.235336105E1,-6.978188782E0,-2.679128723E0,1.443878037E1
1.589757125E0,1.562705338E1,-9.624236298E0,-3.658392334E0,1.871402030E1
1.599678125E0,1.867022507E1,-1.302351746E1,-4.006568298E0,2.311367345E1
1.609599125E0,2.102108643E1,-1.626817017E1,-3.329376526E0,2.678850842E1
1.619520125E0,2.234672974E1,-1.864373016E1,-2.103575592E0,2.917858863E1
1.629441125E0,2.304712326E1,-2.014181488E1,-1.177900543E0,3.063086755E1
1.639362125E0,2.339739487E1,-2.119502472E1,-3.983216858E-1,3.157254851E1
1.649283125E0,2.293440765E1,-2.134546188E1,4.818479919E-1,3.133445348E1
1.659204125E0,2.226080841E1,-2.086062012E1,1.151255951E0,3.052923931E1
1.669125125E0,2.163361267E1,-2.058399536E1,1.626966705E0,2.990587038E1
1.679046125E0,2.074880264E1,-2.036739578E1,1.919159088E0,2.913806434E1
1.688967125E0,1.922721680E1,-1.968331833E1,1.797462158E0,2.757444027E1
1.698888125E0,1.696137863E1,-1.841455673E1,1.030457153E0,2.505685748E1
1.708809125E0,1.419587952E1,-1.652623352E1,1.639091492E-1,2.178683676E1
1.718730125E0,1.117620895E1,-1.422297318E1,-4.713697815E-1,1.809482805E1
1.728651125E0,8.380023651E0,-1.195803314E1,-8.671467590E-1,1.462775774E1
1.738572125E0,6.216422882E0,-9.679321747E0,-6.571334839E-1,1.152236987E1
1.748493125E0,4.680915985E0,-7.281607819E0,-2.155517578E-2,8.656399454E0
1.758414125E0,3.500620422E0,-4.807253265E0,7.432044983E-1,5.993027634E0
1.768335125E0,2.494861908E0,-2.534379730E0,1.243763580E0,3.767540896E0
1.778256125E0,1.717229004E0,-7.429051208E-1,1.287622375E0,2.271289249E0
1.788177125E0,9.705816650E-1,6.701564026E-1,8.500822449E-1,1.453883831E0
1.798098125E0,1.585203552E-1,1.856738892E0,7.634124756E-2,1.865056568E0
1.808019125E0,-4.022135925E-1,2.695145416E0,-5.839356995E-1,2.786855843E0
1.817940125E0,-8.734336853E-1,3.110381927E0,-1.269959106E0,3.471333788E0
1.827861125E0,-1.190923462E0,3.176244965E0,-1.930834808E0,3.903197897E0
1.837782125E0,-1.175954590E0,2.876268768E0,-2.510130157E0,3.994564386E0
1.847703125E0,-9.756710815E-1,2.347268829E0,-2.827021179E0,3.801796123E0
1.857624125E0,-8.042774963E-1,1.795516205E0,-2.876119080E0,3.484652306E0
1.867545125E0,-4.749623108E-1,1.336420898E0,-2.650089111E0,3.005758193E0
1.877466125E0,9.774673462E-2,1.073567505E0,-2.194286957E0,2.444789737E0
1.887387125E0,7.298822021E-1,8.303233337E-1,-1.761087799E0,2.079325637E0
1.897308125E0,1.269959106E0,6.638694763E-1,-1.346000977E0,1.966020713E0
1.907229125E0,1.720671844E0,6.798861694E-1,-7.644602966E-1,2.001838241E0
1.917150125E0,2.189646606E0,7.195536804E-1,3.293151855E-3,2.304847198E0
1.927071125E0,2.414628754E0,6.725514221E-1,7.158114624E-1,2.606749601E0
1.936992125E0,2.573448486E0,6.758445740E-1,1.363364868E0,2.989676699E0
1.946913125E0,2.851420441E0,6.785389709E-1,1.987417145E0,3.541304925E0
1.956834125E0,3.060685272E0,6.445596313E-1,2.399510193E0,3.942194899E0
1.966755125E0,3.294199677E0,6.533912659E-1,2.567760315E0,4.227536480E0
1.976676125E0,3.576362915E0,4.960684204E-1,2.477797394E0,4.379033627E0
1.986597125E0,4.045786743E0,-1.706451416E-2,2.150877228E0,4.582025144E0
1.996518125E0,4.664899292E0,-8.707392883E-1,1.401685181E0,4.948150529E0
2.006439125E0,5.553900604E0,-2.155966644E0,3.755690002E-1,5.969510547E0
2.016360125E0,6.775659943E0,-3.836521912E0,-7.029382324E-1,7.818093770E0
2.026281125E0,8.428223419E0,-5.705235901E0,-1.667831726E0,1.031340532E1
2.036202125E0,1.017015106E1,-7.443720703E0,-2.346969452E0,1.281987582E1
2.046123125E0,1.152079239E1,-8.951535187E0,-2.937790833E0,1.488251506E1
2.056044125E0,1.329280746E1,-1.052102142E1,-3.133284302E0,1.723972426E1
2.065965125E0,1.534788391E1,-1.214319809E1,-2.891237640E0,1.978317607E1
2.075886125E0,1.708636871E1,-1.376492569E1,-2.577939148E0,2.209214669E1
2.085807125E0,1.858819565E1,-1.529863632E1,-2.409988403E0,2.419457243E1
2.095728125E0,2.009391449E1,-1.676468765E1,-2.381697235E0,2.627722652E1
2.105649125E0,2.148646866E1,-1.805724976E1,-2.521656189E0,2.817962658E1
2.115570125E0,2.250749542E1,-1.919383621E1,-2.787952423E0,2.971133416E1
2.125491125E0,2.307092377E1,-2.000559814E1,-2.876418457E0,3.067189697E1
2.135412125E0,2.303679474E1,-2.037473053E1,-2.567610626E0,3.086124075E1
2.145333125E0,2.237891281E1,-2.031590286E1,-1.821861420E0,3.027987495E1
2.155254125E0,2.094579300E1,-1.957194992E1,-7.544311523E-1,2.867676123E1
2.165175125E0,1.900567749E1,-1.801129532E1,4.433779907E-1,2.618814846E1
2.175096125E0,1.679597260E1,-1.607222763E1,1.377285919E0,2.328772451E1
2.185017125E0,1.443837524E1,-1.391970383E1,1.900747375E0,2.014541325E1
2.194938125E0,1.229228806E1,-1.173260193E1,2.092798004E0,1.712115934E1
2.204859125E0,1.039198975E1,-9.669741669E0,1.993255005E0,1.433423944E1
2.214780125E0,8.737630005E0,-7.661218414E0,1.827848969E0,1.176356568E1
2.224701125E0,7.274722137E0,-5.670059052E0,1.638642426E0,9.367833305E0
2.234622125E0,5.923931122E0,-3.782933350E0,1.464255066E0,7.179664864E0
2.244543125E0,4.680017853E0,-2.040706329E0,1.336271210E0,5.277562901E0
2.254464125E0,3.622916107E0,-5.915698242E-1,1.083896027E0,3.827571890E0
2.264385125E0,2.856210480E0,6.165678406E-1,7.897576904E-1,3.026848430E0
2.274306125E0,2.088606720E0,1.804198151E0,3.456312561E-1,2.781522957E0
2.284227125E0,1.348695374E0,2.874921570E0,-3.153941345E-1,3.191179516E0
2.294148125E0,7.232958984E-1,3.522924042E0,-9.620494080E-1,3.722860436E0
2.304069125E0,3.347039795E-1,3.826193390E0,-1.337917786E0,4.067161985E0
2.313990125E0,1.830693054E-1,3.874991913E0,-1.481169891E0,4.152462034E0
2.323911125E0,2.163002014E-1,3.674259338E0,-1.511407013E0,3.978858960E0
2.333832125E0,2.583627319E-1,3.320095825E0,-1.507814484E0,3.655583689E0
2.343753125E0,2.357597351E-1,2.956052856E0,-1.425036621E0,3.290069986E0
2.353674125E0,2.107617188E-1,2.694846039E0,-1.305435333E0,3.001795643E0
2.363595125E0,2.906954956E-1,2.492616577E0,-1.203347626E0,2.783107396E0
2.373516125E0,4.864883423E-1,2.332000580E0,-1.062191162E0,2.608284432E0
2.383437125E0,7.673043823E-1,2.275717621E0,-9.095086670E-1,2.568044532E0
2.393357875E0,1.206640778E0,2.248923340E0,-7.711962891E-1,2.666154885E0
2.403278875E0,1.654060364E0,2.287842407E0,-5.553451538E-1,2.877246393E0
2.413199875E0,2.212249603E0,2.377505951E0,-4.062551880E-1,3.272862070E0
2.423120875E0,2.656675415E0,2.350412292E0,-2.013313293E-1,3.552871586E0
2.433041875E0,2.960992584E0,2.262844391E0,-6.286926270E-3,3.726658201E0
2.442962875E0,3.167862396E0,2.084265747E0,2.165995789E-1,3.798214218E0
2.452883875E0,3.322939911E0,1.729952545E0,3.212319946E-1,3.760033970E0
2.462804875E0,3.581302643E0,1.157093811E0,3.050656128E-1,3.775931638E0
2.472725875E0,3.882925415E0,3.652404785E-1,8.397537231E-2,3.900969399E0
2.482646875E0,4.434678040E0,-6.857240295E-1,-1.839674377E-1,4.491150273E0
2.492567875E0,5.338498535E0,-2.088007965E0,-4.246669006E-1,5.748015818E0
2.502488875E0,6.712341614E0,-3.685785370E0,-6.481521606E-1,7.685092384E0
2.512409875E0,8.684191132E0,-5.518125000E0,-8.801696777E-1,1.032664407E1
2.522330875E0,1.097577576E1,-7.610923004E0,-1.171763306E0,1.340771538E1
2.532251875E0,1.341854599E1,-9.602830811E0,-1.623074799E0,1.658029276E1
2.542172875E0,1.554771835E1,-1.138622223E1,-2.177521820E0,1.939379292E1
2.552093875E0,1.716136276E1,-1.261022690E1,-2.774929504E0,2.147627594E1
2.562014875E0,1.794378571E1,-1.330238754E1,-3.298989716E0,2.257911187E1
2.571935875E0,1.815769089E1,-1.392105103E1,-3.486549683E0,2.314418780E1
2.581856875E0,1.857517273E1,-1.485316269E1,-3.175646210E0,2.399454548E1
2.591777875E0,1.942405746E1,-1.604109238E1,-2.495310974E0,2.531476308E1
2.601698875E0,2.042861847E1,-1.733979172E1,-1.788780212E0,2.685510313E1
2.611620875E0,2.144919617E1,-1.861873215E1,-9.874964905E-1,2.842006953E1
2.621540875E0,2.255210266E1,-1.982672012E1,-5.822891235E-2,3.002831257E1
2.631462875E0,2.308604233E1,-2.064731369E1,6.012995911E-1,3.097803212E1
2.641383875E0,2.290237427E1,-2.074161758E1,8.234376526E-1,3.090973142E1
2.651304875E0,2.215333191E1,-1.973002121E1,8.063731384E-1,2.967649051E1
2.661225875E0,2.084834564E1,-1.745415390E1,6.283932495E-1,2.719735065E1
2.671146875E0,1.914937866E1,-1.460497879E1,4.096980286E-1,2.408675904E1
2.681067875E0,1.727018646E1,-1.183139648E1,1.790277100E-1,2.093497872E1
2.690988875E0,1.503757919E1,-9.557624817E0,-1.091230774E-1,1.781821787E1
2.700909875E0,1.255843460E1,-7.804171143E0,-5.420228577E-1,1.479571410E1
2.710830875E0,1.007165588E1,-6.344556427E0,-8.988807678E-1,1.193732110E1
2.720751875E0,7.709717560E0,-4.870870972E0,-9.922865295E-1,9.173317907E0
2.730672875E0,5.691763916E0,-3.318449249E0,-8.319699097E-1,6.640817406E0
2.740593875E0,4.087400208E0,-1.602118378E0,-5.330415344E-1,4.422415294E0
2.750514875E0,2.978805542E0,4.505630493E-2,-3.495231628E-1,2.999579799E0
2.760435875E0,2.133064270E0,1.425485687E0,-4.239184570E-1,2.600322957E0
2.770356875E0,1.430126038E0,2.640958099E0,-6.917115784E-1,3.081945015E0
2.780277875E0,7.547305298E-1,3.419638824E0,-9.873468018E-1,3.638461429E0
2.790198875E0,1.914518738E-1,3.726201324E0,-1.107247467E0,3.891943870E0
2.800119875E0,-1.317260742E-1,3.763773193E0,-1.011895752E0,3.899650423E0
2.810040875E0,-3.552113342E-1,3.517684937E0,-8.102650452E-1,3.627231982E0
2.819961875E0,-4.816983032E-1,2.999462585E0,-6.674620056E-1,3.110356022E0
2.829882875E0,-4.544549561E-1,2.408790894E0,-6.024971008E-1,2.524243576E0
2.839803875E0,-1.930984497E-1,1.861977997E0,-5.828878784E-1,1.960614024E0
2.849724875E0,1.535806274E-1,1.472038879E0,-5.390290833E-1,1.575131050E0
2.859645875E0,5.641767883E-1,1.275497589E0,-5.707630920E-1,1.506970489E0
2.869566875E0,1.031954041E0,1.117875366E0,-5.833369446E-1,1.629373029E0
2.879487875E0,1.523980865E0,1.033151550E0,-5.242098999E-1,1.914344750E0
2.889408875E0,1.950294342E0,1.056952057E0,-3.312611389E-1,2.242884218E0
2.899329875E0,2.230062561E0,1.061442719E0,-1.053808594E-1,2.472032523E0
2.909250875E0,2.379002838E0,1.040635986E0,9.116043091E-2,2.598247098E0
2.919171875E0,2.239792328E0,1.011296997E0,2.432441711E-1,2.469526071E0
2.929092875E0,2.076182556E0,9.569599915E-1,4.099974060E-1,2.322585694E0
2.939013875E0,2.071691895E0,9.648934937E-1,4.900808716E-1,2.337328822E0
2.948934875E0,2.155966644E0,1.013991394E0,4.834945679E-1,2.431077480E0
2.958855875E0,2.320175171E0,1.033600616E0,3.758683777E-1,2.567648748E0
2.968776875E0,2.449506226E0,9.455836487E-1,1.859133911E-1,2.632256252E0
2.978697875E0,2.610421600E0,8.872050476E-1,-1.576222229E-1,2.761571743E0
2.988618875E0,3.042423248E0,7.541317749E-1,-4.833448792E-1,3.171541617E0
2.998539875E0,3.967050476E0,-1.034349060E-1,-7.911048889E-1,4.046484302E0
3.008460875E0,5.753136292E0,-1.500479736E0,-1.155746613E0,6.056877649E0
3.018381875E0,7.904761963E0,-3.427572327E0,-1.542841644E0,8.752935170E0
3.028302875E0,1.024559418E1,-5.754034424E0,-2.151925049E0,1.194620834E1
3.038223875E0,1.286529648E1,-7.808811493E0,-3.014132080E0,1.534856288E1
3.048144875E0,1.545700699E1,-9.032516785E0,-3.849095764E0,1.831177115E1
3.058065875E0,1.783181854E1,-9.326804810E0,-4.781955872E0,2.068405527E1
3.067986875E0,1.995305740E1,-9.721683655E0,-5.557493134E0,2.288058921E1
3.077907875E0,2.157029434E1,-9.969119110E0,-5.720953217E0,2.444156786E1
3.087828875E0,2.285671921E1,-1.035337006E1,-5.514233093E0,2.569102277E1
3.097749875E0,2.419508606E1,-1.206580902E1,-4.986131287E0,2.749267979E1
3.107670875E0,2.485057297E1,-1.380653915E1,-4.233945465E0,2.874191703E1
3.117591875E0,2.495206192E1,-1.485151611E1,-3.685036926E0,2.927033348E1
3.127512875E0,2.509815811E1,-1.582748657E1,-3.299139404E0,2.985483533E1
3.137433875E0,2.521416687E1,-1.686333252E1,-3.083437958E0,3.048989643E1
3.147354875E0,2.480327133E1,-1.745565079E1,-2.985242157E0,3.047644474E1
3.157275875E0,2.390588745E1,-1.727243179E1,-2.758463745E0,2.962157115E1
3.167196875E0,2.237472153E1,-1.594364502E1,-2.299368439E0,2.757018453E1
3.177117875E0,2.034988220E1,-1.393901367E1,-1.669777679E0,2.472249917E1
3.187038875E0,1.797282532E1,-1.173769135E1,-1.048270111E0,2.149173605E1
3.196959875E0,1.560684540E1,-9.571695557E0,-6.447093201E-1,1.831956957E1
3.206880875E0,1.331900299E1,-7.694449310E0,-4.008663940E-1,1.538704275E1
3.216801875E0,1.104897354E1,-5.956263885E0,-2.242337036E-1,1.255416969E1
3.226722875E0,8.815617828E0,-4.196523285E0,2.544708252E-2,9.763532810E0
3.236643875E0,6.796017609E0,-2.441423035E0,2.832110596E-1,7.226798065E0
3.246564875E0,5.043013000E0,-7.903564453E-1,2.468367004E-1,5.110535372E0
3.256485875E0,3.560495911E0,6.114784241E-1,-9.145980835E-2,3.613779447E0
3.266406875E0,2.368225250E0,1.811532898E0,-7.038363647E-1,3.063580896E0
3.276327875E0,1.372046814E0,2.864293671E0,-1.195713501E0,3.393585341E0
3.286248875E0,4.665797424E-1,3.609294434E0,-1.499431915E0,3.936114713E0
3.296169875E0,-2.894979858E-1,3.889960785E0,-1.718576202E0,4.262523684E0
3.306090875E0,-8.848100281E-1,3.536246338E0,-1.661395111E0,4.006015560E0
3.316011875E0,-1.353186035E0,2.860401764E0,-1.499581604E0,3.501678981E0
3.325932875E0,-1.663341064E0,2.321821747E0,-1.371298370E0,3.168283280E0
3.335853875E0,-1.663939819E0,1.946402435E0,-1.307530975E0,2.875207021E0
3.345774875E0,-1.443448334E0,1.601819000E0,-1.281784515E0,2.508453457E0
3.355695875E0,-1.062041473E0,1.450783081E0,-1.318158875E0,2.229404956E0
3.365616875E0,-4.924758911E-1,1.456620941E0,-1.230740662E0,1.969517618E0
3.375537875E0,2.865042114E-1,1.582658844E0,-9.871971130E-1,1.887180919E0
3.385458875E0,1.049317932E0,1.877096558E0,-6.303392029E-1,2.240956742E0
3.395380292E0,1.633253632E0,2.186054077E0,-1.182540894E-1,2.731361178E0
3.405301292E0,2.140548706E0,2.329605560E0,3.704795837E-1,3.185320384E0
3.415222292E0,2.434237976E0,2.274370422E0,6.888674927E-1,3.401883855E0
3.425143292E0,2.638413391E0,2.148033142E0,9.373507690E-1,3.529008085E0
3.435064292E0,2.854563904E0,1.936522980E0,9.916877747E-1,3.589164384E0
3.444985292E0,3.006497955E0,1.723964996E0,8.235873413E-1,3.562215795E0
3.454906292E0,3.249592438E0,1.554816742E0,6.005511475E-1,3.652118261E0
3.464827292E0,3.565585327E0,1.342857513E0,3.591032410E-1,3.826959650E0
3.474748292E0,4.147275696E0,9.972262573E-1,6.960525513E-2,4.266052132E0
3.484669292E0,5.108277283E0,5.132826233E-1,-2.496807861E-1,5.140067737E0
3.494590292E0,6.504124603E0,-4.593946838E-1,-6.583309937E-1,6.553478468E0
3.504511292E0,8.031398621E0,-1.843117218E0,-1.398841095E0,8.358062054E0
3.514432292E0,9.686357117E0,-3.425027618E0,-2.149979095E0,1.049660605E1
3.524353292E0,1.135972733E1,-4.848567352E0,-2.759511566E0,1.265570679E1
3.534274292E0,1.310839096E1,-5.530998230E0,-3.334765320E0,1.461309395E1
3.544195292E0,1.505823624E1,-5.669011230E0,-3.733236694E0,1.651742181E1
3.554116292E0,1.660975983E1,-5.682034149E0,-3.833228760E0,1.796839660E1
3.564037292E0,1.769036270E1,-5.878874817E0,-3.705095215E0,1.900625771E1
3.573958292E0,1.828118408E1,-6.246510315E0,-3.354374542E0,1.960796805E1
3.583879292E0,1.895657959E1,-6.630162506E0,-2.939437408E0,2.029658239E1
3.593800292E0,2.008657974E1,-7.035369873E0,-2.593806152E0,2.144049779E1
3.603721292E0,2.142749130E1,-7.446415100E0,-2.400408325E0,2.281114731E1
3.613642292E0,2.254117538E1,-7.597750397E0,-2.529589691E0,2.392131315E1
3.623563292E0,2.308993423E1,-7.546856232E0,-2.969824219E0,2.447284123E1
3.633484292E0,2.357193192E1,-7.608228607E0,-3.729195099E0,2.504851319E1
3.643406292E0,2.421888657E1,-7.996820526E0,-4.677024078E0,2.593025567E1
3.653327292E0,2.480072662E1,-8.655151520E0,-5.724096680E0,2.688406539E1
3.663248292E0,2.478770370E1,-8.724906464E0,-6.259982300E0,2.701373033E1
3.673169292E0,2.420107361E1,-8.081394653E0,-6.000571747E0,2.621083296E1
3.683090292E0,2.300595886E1,-7.013964386E0,-4.643344116E0,2.449551968E1
3.693011292E0,2.097617981E1,-5.857020264E0,-2.640209656E0,2.193799245E1
3.702932292E0,1.811083832E1,-4.815486145E0,-8.017327881E-1,1.875724252E1
3.712853292E0,1.462039673E1,-3.974983978E0,3.975732422E-1,1.515633737E1
3.722774292E0,1.096559692E1,-3.499123535E0,1.004261627E0,1.155407819E1
3.732695292E0,7.531587982E0,-3.140020294E0,1.199605408E0,8.247641973E0
3.742616292E0,4.548142090E0,-2.495011597E0,1.233734436E0,5.332239679E0
3.752537292E0,2.122586060E0,-1.701212311E0,1.086291046E0,2.929082304E0
3.762458292E0,3.387455750E-1,-9.981243896E-1,9.389973450E-1,1.411636241E0
3.772379292E0,-8.827143860E-1,-3.095562744E-1,8.695417786E-1,1.277150218E0
3.782300292E0,-1.628912659E0,4.342469788E-1,8.463400269E-1,1.886324026E0
3.792221292E0,-2.155517578E0,1.115031281E0,7.222480774E-1,2.532033387E0
3.802142292E0,-2.669249268E0,1.530866547E0,4.725672913E-1,3.113159790E0
3.812063292E0,-3.000211029E0,1.648821259E0,2.802172852E-1,3.434879836E0
3.821984292E0,-2.971770172E0,1.590442657E0,8.277786255E-2,3.371613557E0
3.831905292E0,-2.677033081E0,1.473086700E0,-2.558180237E-1,3.066257231E0
3.841826292E0,-2.240540771E0,1.349593506E0,-7.270381165E-1,2.714776234E0
3.851747292E0,-1.716929626E0,1.164129181E0,-1.158740387E0,2.376073100E0
3.861668292E0,-1.142124939E0,1.063837738E0,-1.487307129E0,2.155987617E0
3.871589292E0,-4.758604431E-1,1.085392914E0,-1.604064331E0,1.994377927E0
3.881510292E0,1.790277100E-1,1.034947815E0,-1.480720825E0,1.815406859E0
3.891431292E0,6.948550415E-1,9.449848938E-1,-1.196162567E0,1.675298441E0
3.901352292E0,1.096918945E0,8.788224792E-1,-6.765930176E-1,1.559916098E0
3.911273292E0,1.436412964E0,7.911048889E-1,-1.008901978E-1,1.642957084E0
3.921194292E0,1.720522156E0,7.101232910E-1,4.240681458E-1,1.909006383E0
3.931115292E0,1.959425354E0,7.777825928E-1,9.138496399E-1,2.297697683E0
3.941036292E0,2.183958435E0,7.592211914E-1,1.278491364E0,2.642088460E0
3.950957292E0,2.234852600E0,7.255412292E-1,1.544039154E0,2.811589075E0
3.960878292E0,2.469564514E0,8.467890930E-1,1.706451416E0,3.118938456E0
3.970799292E0,2.997816010E0,9.502239990E-1,1.610500946E0,3.533205311E0
3.980720292E0,3.746409302E0,9.071136475E-1,1.322200470E0,4.075125999E0
3.990641292E0,4.925207977E0,6.738986206E-1,8.816665649E-1,5.048677936E0
4.000562292E0,6.640041962E0,-1.197509766E-1,2.365081787E-1,6.645331720E0
4.010483292E0,8.592881012E0,-1.371747437E0,-5.989045715E-1,8.722269303E0
4.020404292E0,1.091799591E1,-2.771187286E0,-1.329235840E0,1.134235344E1
4.030325292E0,1.348770218E1,-3.463198242E0,-2.064207458E0,1.407738628E1
4.040246292E0,1.581281708E1,-3.131338348E0,-2.834655304E0,1.636721523E1
4.050167292E0,1.868040390E1,-2.692900085E0,-3.693419495E0,1.923149886E1
4.060088292E0,2.130534531E1,-3.056643677E0,-4.302502899E0,2.194931298E1
4.070009292E0,2.270568329E1,-3.788172455E0,-4.165388031E0,2.339334866E1
4.079930292E0,2.341984818E1,-4.014950867E0,-3.439098358E0,2.400909237E1
4.089851292E0,2.443413895E1,-4.163292389E0,-2.527943115E0,2.491486797E1
4.099772292E0,2.552447159E1,-4.534670105E0,-1.896705780E0,2.599344871E1
4.109693292E0,2.641946045E1,-5.416935425E0,-2.081571350E0,2.704928870E1
4.119614292E0,2.675386505E1,-7.078180847E0,-2.953508148E0,2.783151361E1
4.129535292E0,2.629102753E1,-8.387059021E0,-3.764222260E0,2.785193452E1
4.139456292E0,2.564182755E1,-9.471553802E0,-3.921694794E0,2.761509264E1
4.149377292E0,2.487841507E1,-9.794731750E0,-3.601809998E0,2.697860897E1
4.159298292E0,2.392998734E1,-8.907826080E0,-2.978805542E0,2.570733245E1
4.169219292E0,2.275163773E1,-7.507188721E0,-2.108066254E0,2.405075560E1
4.179140292E0,2.069281906E1,-6.439459076E0,-1.338366852E0,2.171291366E1
4.189061292E0,1.729488510E1,-5.919590149E0,-7.306306458E-1,1.829449150E1
4.198982292E0,1.336780151E1,-5.445226593E0,-7.005432129E-2,1.443445592E1
4.208903292E0,1.023272095E1,-4.736749878E0,4.188290405E-1,1.128365168E1
4.218824292E0,8.391549683E0,-3.795956268E0,4.808001709E-1,9.222719711E0
4.228745292E0,7.190896454E0,-2.610421600E0,3.218307495E-1,7.656818384E0
4.238666292E0,5.993686066E0,-1.284329224E0,1.746867371E-1,6.132233660E0
4.248587292E0,5.085075531E0,-1.649569702E-1,1.285826111E-1,5.089374956E0
4.258508292E0,3.876039734E0,7.732919312E-1,6.376739502E-2,3.952939502E0
4.268429292E0,2.403851166E0,1.534608765E0,-7.439529419E-2,2.852903634E0
4.278350292E0,9.840536499E-1,2.110610962E0,-1.728904724E-1,2.335151244E0
4.288271292E0,-1.845661926E-1,2.436483307E0,-1.954934692E-1,2.451271768E0
4.298192292E0,-8.812174988E-1,2.429447937E0,-2.520758057E-1,2.596594649E0
4.308113292E0,-1.157093811E0,2.268981628E0,-4.040098572E-1,2.578830681E0
4.318034292E0,-1.113235016E0,2.160307617E0,-6.735992432E-1,2.521895545E0
4.327955292E0,-8.497828674E-1,2.113305359E0,-1.181642761E0,2.566022228E0
4.337876292E0,-2.329156494E-1,2.082170105E0,-1.649270325E0,2.666416068E0
4.347797292E0,6.286926270E-1,2.011367340E0,-2.017055511E0,2.917081749E0
4.357718292E0,1.664089508E0,1.923649750E0,-2.191592560E0,3.357484207E0
4.367639292E0,2.812201996E0,1.894909515E0,-2.085612946E0,3.981073159E0
4.377560292E0,3.740571442E0,1.976040802E0,-1.721120911E0,4.567151098E0
4.387481292E0,4.097279663E0,2.123035126E0,-1.250798950E0,4.781158520E0
4.397404875E0,3.885919189E0,2.149679718E0,-9.178912354E-1,4.534756350E0
4.407325875E0,3.446133728E0,2.167193298E0,-6.240522766E-1,4.118495564E0
4.417246875E0,2.930905151E0,2.179617462E0,-4.450245667E-1,3.679535861E0
4.427167875E0,2.262395325E0,1.945354614E0,-4.742138672E-1,3.021211011E0
4.437088875E0,1.808838501E0,1.572629700E0,-3.484753418E-1,2.422085044E0
4.447009875E0,1.636846161E0,1.227297821E0,-1.815724182E-1,2.053897232E0
4.456930875E0,1.797312469E0,9.880952454E-1,-2.993774414E-4,2.051015460E0
4.466851875E0,1.894909515E0,7.906558228E-1,1.752854919E-1,2.060714368E0
4.476772875E0,1.859582977E0,5.776487732E-1,1.826202393E-1,1.955780434E0
4.486693875E0,2.136806488E0,3.424877930E-1,-1.293310547E-1,2.167940584E0
4.496614875E0,2.688259735E0,-1.896556091E-1,-4.385879517E-1,2.730397232E0
4.506535875E0,3.772455139E0,-1.151405640E0,-9.318122864E-1,4.052829488E0
4.516456875E0,6.127208405E0,-3.110531616E0,-1.700314178E0,7.078782245E0
4.526378875E0,9.664053497E0,-5.921536102E0,-2.437980194E0,1.159319918E1
4.536298875E0,1.286799088E1,-8.202941895E0,-3.075205078E0,1.556696281E1
4.546219875E0,1.517813690E1,-9.148675232E0,-3.742816772E0,1.811305539E1
4.556141875E0,1.653057449E1,-9.099577332E0,-3.957919464E0,1.928023151E1
4.566062875E0,1.742765900E1,-9.214238892E0,-3.477718048E0,2.001799239E1
4.575983875E0,1.848550919E1,-1.024963577E1,-2.345771942E0,2.126668120E1
4.585904875E0,1.986893234E1,-1.161449753E1,-1.061891785E0,2.303906768E1
4.595825875E0,2.171983337E1,-1.333516937E1,-4.384382629E-1,2.549058909E1
4.605746875E0,2.366952896E1,-1.479223938E1,-4.399351501E-1,2.791505848E1
4.615667875E0,2.562311646E1,-1.526600418E1,-8.277786255E-1,2.983756354E1
4.625588875E0,2.751428375E1,-1.556448349E1,-1.365011444E0,3.164098944E1
4.635509875E0,2.907299240E1,-1.572659637E1,-1.843416595E0,3.310533047E1
4.645430875E0,2.992412247E1,-1.529758850E1,-2.149380341E0,3.367624022E1
4.655351875E0,2.964270767E1,-1.388722137E1,-2.043101349E0,3.279815999E1
4.665272875E0,2.742851212E1,-1.159563675E1,-1.674717407E0,2.982594084E1
4.675193875E0,2.354109604E1,-9.535321198E0,-1.236129456E0,2.542899072E1
4.685114875E0,1.891915741E1,-8.296647034E0,-8.084687805E-1,2.067419868E1
4.695035875E0,1.465257980E1,-7.413333893E0,-3.483256531E-1,1.642488798E1
4.704956875E0,1.163440613E1,-6.552024994E0,1.390608215E-1,1.335319345E1
4.714877875E0,9.653724976E0,-5.382806396E0,3.974235535E-1,1.106015172E1
4.724798875E0,8.299341431E0,-3.639830933E0,4.710704041E-1,9.074653973E0
4.734719875E0,7.213050385E0,-1.693578186E0,5.298980713E-1,7.428128626E0
4.744640875E0,6.084397430E0,6.795867920E-2,4.613406372E-1,6.102241036E0
4.754561875E0,5.063370667E0,1.598525848E0,2.770738220E-1,5.316933072E0
4.764482875E0,4.135150909E0,2.982547760E0,2.502795410E-1,5.104674724E0
4.774403875E0,3.168910217E0,3.873345337E0,3.035687256E-1,5.013676299E0
4.784324875E0,2.189646606E0,4.037853241E0,3.890409851E-1,4.609790011E0
4.794245875E0,9.544152832E-1,3.522025909E0,4.156855774E-1,3.672651568E0
4.804166875E0,-2.962339783E-1,2.667453003E0,3.275189209E-1,2.703761960E0
4.814087875E0,-1.310973816E0,1.788181458E0,9.235794067E-2,2.219183467E0
4.824008875E0,-1.938468933E0,1.129401398E0,-3.405418396E-1,2.269180043E0
4.833929875E0,-2.092498627E0,8.481362915E-1,-1.016835480E0,2.476255250E0
4.843850875E0,-1.720971222E0,8.797206116E-1,-1.704355774E0,2.576912669E0
4.853771875E0,-1.163530426E0,1.003064117E0,-2.177222443E0,2.664627224E0
4.863692875E0,-5.749543762E-1,1.015937347E0,-2.342179413E0,2.616964965E0
4.873613875E0,-6.855743408E-2,8.866062927E-1,-2.018103333E0,2.205337140E0
4.883534875E0,4.052073669E-1,6.412664795E-1,-1.394649811E0,1.587596864E0
4.893455875E0,7.376660156E-1,3.662882996E-1,-7.518864441E-1,1.115191236E0
4.903376875E0,9.307644653E-1,1.824705505E-1,-1.505868530E-1,9.603615944E-1
4.913297875E0,1.045875092E0,1.698966980E-1,3.818559265E-1,1.126291944E0
4.923218875E0,1.087039490E0,1.963916016E-1,8.493338013E-1,1.393410356E0
4.933139875E0,1.203347626E0,1.296304321E-1,1.307530975E0,1.781708957E0
4.943060875E0,1.538500671E0,8.457412720E-2,1.604663086E0,2.224652943E0
4.952981875E0,2.079475708E0,1.393601990E-1,1.679956512E0,2.676918820E0
4.962902875E0,2.729124756E0,6.361770630E-2,1.450184326E0,3.091149256E0
4.972823875E0,3.495531006E0,-1.877096558E-1,1.018482056E0,3.645720454E0
4.982744875E0,4.744833069E0,-3.478765869E-1,6.050418091E-1,4.795887255E0
4.992665875E0,6.417903900E0,-7.174580383E-1,-5.688171387E-3,6.457884240E0
5.002586875E0,8.299191742E0,-1.531764679E0,-7.839198303E-1,8.475695659E0
5.012507875E0,9.969268799E0,-2.608775024E0,-1.639989624E0,1.043463432E1
5.022428875E0,1.134041748E1,-3.858825531E0,-2.504441986E0,1.223796686E1
5.032349875E0,1.268013153E1,-4.940925293E0,-3.007994843E0,1.393723471E1
5.042270875E0,1.406714722E1,-5.466183014E0,-3.198847961E0,1.542713246E1
5.052191875E0,1.490405685E1,-5.867049408E0,-3.310216370E0,1.635575470E1
5.062112875E0,1.579500412E1,-6.322552185E0,-3.172053680E0,1.730660989E1
5.072033875E0,1.718725891E1,-7.150031433E0,-2.898123322E0,1.883942508E1
5.081954875E0,1.900073776E1,-8.112529907E0,-2.522554321E0,2.081356426E1
5.091875875E0,2.094893646E1,-8.915759583E0,-2.232008514E0,2.287641952E1
5.101796875E0,2.259805710E1,-9.508526917E0,-2.159259796E0,2.461192133E1
5.111717875E0,2.378059799E1,-9.571994934E0,-2.197430420E0,2.572875101E1
5.121638875E0,2.480312164E1,-9.495054932E0,-2.180814972E0,2.664783041E1
5.131559875E0,2.631812119E1,-1.020757324E1,-2.101929016E0,2.830646852E1
5.141480875E0,2.745725235E1,-1.089554260E1,-1.942510529E0,2.960383256E1
5.151401875E0,2.766127808E1,-1.061846878E1,-1.747615814E0,2.968084138E1
5.161322875E0,2.719784180E1,-9.879455566E0,-1.425635376E0,2.897168751E1
5.171243875E0,2.579675537E1,-8.650361481E0,-8.002359009E-1,2.722024465E1
5.181164875E0,2.351130798E1,-7.020251312E0,-3.577560425E-2,2.453704977E1
5.191085875E0,2.072111023E1,-5.660628662E0,7.045848083E-1,2.149194188E1
5.201006875E0,1.764815048E1,-4.650678864E0,1.351240082E0,1.830059778E1
5.210927875E0,1.444765594E1,-3.739074554E0,2.007176056E0,1.505802764E1
5.220848875E0,1.118249588E1,-2.891686707E0,2.561323700E0,1.183091058E1
5.230769875E0,8.084987183E0,-2.031725006E0,3.032693481E0,8.870859823E0
5.240690875E0,5.430557098E0,-9.250762939E-1,3.430117035E0,6.489408249E0
5.250611875E0,3.444786530E0,3.191363525E-1,3.596271515E0,4.990147398E0
5.260532875E0,2.127076721E0,1.372495880E0,3.346890106E0,4.196412003E0
5.270454875E0,1.025218048E0,2.219135284E0,2.804567871E0,3.720380948E0
5.280375875E0,2.303709412E-1,2.685864716E0,2.149679718E0,3.447907036E0
5.290296875E0,-5.652246094E-1,2.777174835E0,1.504521332E0,3.208701196E0
5.300217875E0,-1.533710632E0,2.554737396E0,9.710307312E-1,3.133983431E0
5.310138875E0,-2.205214233E0,2.058369598E0,5.544470215E-1,3.067126786E0
5.320059875E0,-2.615061951E0,1.602567444E0,1.438508606E-1,3.070417641E0
5.329980875E0,-2.860401764E0,1.387464752E0,-3.838018799E-1,3.202227439E0
5.339901875E0,-2.735860748E0,1.261576538E0,-8.851094055E-1,3.140052238E0
5.349822875E0,-2.204465790E0,1.174607391E0,-1.270557861E0,2.802443438E0
5.359743875E0,-1.449286194E0,1.203497314E0,-1.548679504E0,2.438697288E0
5.369664875E0,-4.834945679E-1,1.308878174E0,-1.694326630E0,2.194919543E0
5.379585875E0,5.602848816E-1,1.428479462E0,-1.655257874E0,2.257066979E0
5.389506875E0,1.427281952E0,1.563947754E0,-1.474134521E0,2.579949405E0
5.399425000E0,2.094145203E0,1.698218536E0,-1.161285095E0,2.935638499E0
5.409346000E0,2.229014740E0,1.834285583E0,-7.819738770E-1,2.990751320E0
5.419267000E0,1.964365082E0,1.866768036E0,-3.881428528E-1,2.737555104E0
5.429188000E0,1.724114685E0,1.782942352E0,7.229965210E-2,2.481266233E0
5.439109000E0,1.677860870E0,1.641486511E0,5.191204834E-1,2.403992750E0
5.449030000E0,1.645827484E0,1.491797791E0,7.972421265E-1,2.360043170E0
5.458951000E0,1.723216553E0,1.324894867E0,8.720864868E-1,2.342083802E0
5.468872000E0,2.005828857E0,1.074615326E0,8.358618164E-1,2.424213786E0
5.478793000E0,2.411634979E0,7.673043823E-1,6.791377258E-1,2.620299093E0
5.488714000E0,2.914738770E0,5.745053101E-1,4.152365112E-1,2.999696619E0
5.498635000E0,3.471131744E0,2.893482971E-1,5.688171387E-2,3.483635106E0
5.508556000E0,4.407434692E0,-3.189866638E-1,-4.010160828E-1,4.437121472E0
5.518477000E0,5.540877686E0,-1.191073151E0,-8.937913513E-1,5.737494554E0
5.528398000E0,7.266339569E0,-2.284100189E0,-1.521286469E0,7.767310791E0
5.538319000E0,9.866881714E0,-3.555406494E0,-2.247725830E0,1.072606832E1
5.548240000E0,1.235934860E1,-4.970563660E0,-2.956501923E0,1.364554523E1
5.558161000E0,1.462084579E1,-6.244115295E0,-3.460354156E0,1.627059183E1
5.568082000E0,1.704954529E1,-7.068151703E0,-3.683839417E0,1.882063856E1
5.578003000E0,1.928724197E1,-7.786657562E0,-3.482358398E0,2.108925221E1
5.587924000E0,2.124711639E1,-8.641380157E0,-2.835703125E0,2.311178527E1
5.597845000E0,2.230586472E1,-9.666448517E0,-2.049837341E0,2.439659117E1
5.607766000E0,2.322824661E1,-1.114776810E1,-1.267713776E0,2.579595458E1
5.617687000E0,2.435091202E1,-1.243748611E1,-3.339555359E-1,2.734537444E1
5.627608000E0,2.555665466E1,-1.331017136E1,4.104464722E-1,2.881790633E1
5.637529000E0,2.681628525E1,-1.415950516E1,9.151968384E-1,3.033879243E1
5.647450000E0,2.813938385E1,-1.500270172E1,1.287921753E0,3.191496083E1
5.657371000E0,2.921025696E1,-1.549891983E1,1.438209229E0,3.309870199E1
5.667292000E0,2.933644455E1,-1.526974640E1,1.163530426E0,3.309298924E1
5.677213000E0,2.765888306E1,-1.416758835E1,7.036866760E-1,3.108423309E1
5.687134000E0,2.438414291E1,-1.231324448E1,2.243833923E-1,2.731762733E1
5.697055000E0,2.067425766E1,-1.021625519E1,-1.477427673E-1,2.306119311E1
5.706976000E0,1.702948700E1,-8.462352448E0,-3.525169373E-1,1.901944018E1
5.716897000E0,1.371912094E1,-7.143894196E0,-3.338058472E-1,1.547129374E1
5.726818000E0,1.089269852E1,-6.124663696E0,-5.658233643E-2,1.249662306E1
5.736739000E0,8.582253113E0,-5.142406311E0,3.820056152E-1,1.001225946E1
5.746660000E0,6.634204102E0,-3.962559814E0,7.319778442E-1,7.762108986E0
5.756581000E0,5.002597046E0,-2.607876892E0,8.961863708E-1,5.712280552E0
5.766502000E0,3.612138519E0,-1.344055023E0,7.704478455E-1,3.930345846E0
5.776423000E0,2.511327667E0,-2.339634705E-1,4.614903259E-1,2.564074663E0
5.786344000E0,1.561852112E0,7.096742249E-1,2.903961182E-2,1.715768872E0
5.796265000E0,7.315287781E-1,1.454225922E0,-4.331991577E-1,1.684508502E0
5.806186000E0,7.334747314E-3,1.970951385E0,-7.553292847E-1,2.110740508E0
5.816107000E0,-4.802014160E-1,2.160157928E0,-8.934919739E-1,2.386462567E0
5.826028000E0,-6.273454285E-1,2.068548431E0,-9.053173828E-1,2.343513274E0
5.835949000E0,-7.882608032E-1,1.868863678E0,-9.255253601E-1,2.229485082E0
5.845870000E0,-8.467890930E-1,1.612895966E0,-1.071022797E0,2.113190714E0
5.855791000E0,-7.180567932E-1,1.334624634E0,-1.259480896E0,1.970563523E0
5.865712000E0,-3.486250305E-1,1.211131439E0,-1.471589813E0,1.937512672E0
5.875633000E0,7.858657837E-2,1.175804901E0,-1.683698730E0,2.055123945E0
5.885554000E0,5.230123901E-1,1.184636536E0,-1.773212585E0,2.195720509E0
5.895475000E0,9.439370728E-1,1.273102570E0,-1.768272858E0,2.374572856E0
5.905396000E0,1.399290161E0,1.331032104E0,-1.605411530E0,2.511375240E0
5.915317000E0,1.829944611E0,1.283730469E0,-1.284628601E0,2.578164432E0
5.925239000E0,2.233355713E0,1.213526459E0,-9.307644653E-1,2.706814862E0
5.935160000E0,2.463427277E0,1.210832062E0,-5.568420410E-1,2.800832249E0
5.945081000E0,2.571951599E0,1.256636810E0,-2.158511353E-1,2.870655468E0
5.955002000E0,2.644700317E0,1.200503540E0,1.347198486E-2,2.904450036E0
5.964923000E0,2.818788300E0,9.828561401E-1,1.496887207E-1,2.988976478E0
5.974844000E0,2.926264801E0,7.179071045E-1,2.642005920E-1,3.024602164E0
5.984765000E0,3.106190643E0,4.270619202E-1,3.182382202E-1,3.151519913E0
5.994686000E0,3.802692261E0,-1.152603149E-2,2.721340942E-1,3.812434687E0
6.004607000E0,4.958887939E0,-6.640191650E-1,1.257385254E-1,5.004727887E0
6.014528000E0,6.441255341E0,-1.382375336E0,-2.564167786E-1,6.592911458E0
6.024449000E0,8.088879089E0,-2.193239136E0,-8.180488586E-1,8.420775900E0
6.034370000E0,9.518256683E0,-3.209475861E0,-1.460213470E0,1.015037777E1
6.044291000E0,1.060125458E1,-4.254303131E0,-1.914219360E0,1.158231106E1
6.054212000E0,1.157033936E1,-5.119953003E0,-2.174677734E0,1.283806429E1
6.064133000E0,1.238509506E1,-5.809419250E0,-2.291584625E0,1.387051880E1
6.074054000E0,1.326765976E1,-6.489455109E0,-2.276316376E0,1.494407707E1
6.083975000E0,1.416579208E1,-7.076683960E0,-2.189496918E0,1.598571293E1
6.093896000E0,1.510733414E1,-7.647147675E0,-2.062710571E0,1.705770170E1
6.103817000E0,1.645228729E1,-8.168513489E0,-1.736239471E0,1.845039017E1
6.113738000E0,1.815379898E1,-8.373736725E0,-1.311422882E0,2.003496229E1
6.123659000E0,1.976310242E1,-8.692573700E0,-8.644523621E-1,2.160759895E1
6.133580000E0,2.096330658E1,-9.099128265E0,-3.924838257E-1,2.285625519E1
6.143501000E0,2.206351868E1,-9.424401855E0,-1.408570862E-1,2.399245814E1
6.153422000E0,2.341086685E1,-9.784552917E0,-1.922003174E-1,2.537406360E1
6.163343000E0,2.483859787E1,-1.017000137E1,-3.794609070E-1,2.684266869E1
6.173264000E0,2.611155075E1,-1.046668442E1,-6.511459351E-1,2.813873765E1
6.183185000E0,2.691942078E1,-1.067744614E1,-9.354048157E-1,2.897478306E1
6.193106000E0,2.683709198E1,-1.039124130E1,-8.913963318E-1,2.879239464E1
6.203027000E0,2.557806015E1,-9.451794891E0,-3.405418396E-1,2.727067209E1
6.212948000E0,2.325548996E1,-8.359815674E0,4.355941772E-1,2.471627144E1
6.222869000E0,2.020513321E1,-7.377258911E0,1.231638794E0,2.154502938E1
6.232790000E0,1.679357758E1,-6.438111877E0,1.876647491E0,1.808301242E1
6.242711000E0,1.354503296E1,-5.617667999E0,2.282004547E0,1.484027144E1
6.252632000E0,1.060799057E1,-4.892426147E0,2.443668365E0,1.193468946E1
6.262553000E0,7.965535583E0,-4.065845032E0,2.446512451E0,9.271800048E0
6.272474000E0,5.714067535E0,-2.921175385E0,2.302212524E0,6.817918739E0
6.282395000E0,3.878883820E0,-1.510658569E0,2.192939758E0,4.704977554E0
6.292316000E0,2.526745605E0,-2.380050659E-1,2.125879211E0,3.310657365E0
6.302237000E0,1.620230713E0,7.352709961E-1,2.089504852E0,2.744412784E0
6.312158000E0,1.027912445E0,1.360969849E0,2.007924500E0,2.634502556E0
6.322079000E0,3.794609070E-1,1.778302002E0,1.752256165E0,2.525222813E0
6.332000000E0,-2.769241333E-1,1.992506561E0,1.265019379E0,2.376350858E0
6.341921000E0,-8.095166016E-1,2.131866760E0,7.153623962E-1,2.389961583E0
6.351842000E0,-1.233584747E0,2.292333069E0,1.948947144E-1,2.610460913E0
6.361763000E0,-1.506018219E0,2.294428711E0,-3.448828125E-1,2.766123305E0
6.371684000E0,-1.524579620E0,2.123783569E0,-8.111631775E-1,2.737295265E0
6.381605000E0,-1.223256226E0,1.951641541E0,-1.155147858E0,2.576747382E0
6.391526000E0,-7.747888184E-1,1.804946594E0,-1.327439575E0,2.370701531E0
6.401446375E0,-2.531236267E-1,1.722318420E0,-1.330133972E0,2.190823748E0
6.411367375E0,1.278341675E-1,1.754202118E0,-1.162482605E0,2.108300845E0
6.421288375E0,4.055067444E-1,1.751807098E0,-7.747888184E-1,1.957948299E0
6.431209375E0,5.128335571E-1,1.748963013E0,-2.700384521E-1,1.842495765E0
6.441130375E0,5.974076843E-1,1.716480560E0,3.079096985E-1,1.843369154E0
6.451051375E0,6.490502930E-1,1.592687988E0,9.382489014E-1,1.959140707E0
6.460972375E0,8.110134888E-1,1.380279694E0,1.464704132E0,2.169855550E0
6.470893375E0,1.251098328E0,1.260828094E0,1.909878387E0,2.608173684E0
6.480814375E0,1.980681152E0,1.254541168E0,2.153871002E0,3.183729207E0
6.490735375E0,2.770588531E0,1.185834045E0,2.229014740E0,3.748449000E0
6.500656375E0,3.649261322E0,7.822732544E-1,2.036515045E0,4.251641233E0
6.510577375E0,4.862787781E0,1.059796143E-1,1.733994141E0,5.163784693E0
6.520499375E0,6.243067474E0,-4.689747620E-1,1.351689148E0,6.404911582E0
6.530420375E0,7.979756012E0,-1.063238983E0,8.702902222E-1,8.097183968E0
6.540341375E0,1.022658371E1,-1.743125153E0,4.643344116E-1,1.038446465E1
6.550262375E0,1.241533218E1,-2.179467773E0,1.956431580E-1,1.260669779E1
6.560183375E0,1.457743607E1,-2.567910004E0,-5.688171387E-2,1.480199445E1
6.570104375E0,1.679327820E1,-3.128045197E0,-2.755769348E-1,1.708434377E1
6.580025375E0,1.905941574E1,-3.716172180E0,-2.272274780E-1,1.941965232E1
6.589946375E0,2.136132889E1,-4.272864532E0,1.483415222E-1,2.178498906E1
6.599867375E0,2.350651794E1,-4.815935211E0,6.773414612E-1,2.400434147E1
6.609788375E0,2.509082336E1,-5.400619354E0,1.155447235E0,2.569146093E1
6.619709375E0,2.600676865E1,-6.236930237E0,1.436412964E0,2.678272944E1
6.629630375E0,2.612876495E1,-7.308551788E0,1.503024445E0,2.717326572E1
6.639551375E0,2.584405701E1,-8.201744385E0,1.143771515E0,2.713838807E1
6.649472375E0,2.584405701E1,-8.872200165E0,5.177732849E-1,2.732945860E1
6.659393375E0,2.594943787E1,-9.224268036E0,6.915618896E-2,2.754024744E1
6.669314375E0,2.567296280E1,-9.142537994E0,-1.719923401E-1,2.725282740E1
6.679235375E0,2.479908005E1,-8.621022491E0,-1.820214844E-1,2.625546670E1
6.689156375E0,2.328827179E1,-7.736511841E0,1.764830017E-1,2.454034158E1
6.699077375E0,2.124247604E1,-6.613547058E0,8.854087830E-1,2.226579758E1
6.708998375E0,1.850287308E1,-5.625601501E0,1.564845886E0,1.940238251E1
6.718919375E0,1.513038620E1,-4.808151398E0,2.176174622E0,1.602443891E1
6.728840375E0,1.187660248E1,-4.038451996E0,2.790197754E0,1.285099157E1
6.738761375E0,8.947792969E0,-3.114573212E0,3.445235596E0,1.008132995E1
6.748682375E0,6.530619507E0,-1.934277649E0,4.039050751E0,7.918607967E0
6.758603375E0,4.582720184E0,-6.574328613E-1,4.446204071E0,6.418899664E0
6.768524375E0,3.000809784E0,5.900729370E-1,4.563410339E0,5.493428743E0
6.778445375E0,1.770368500E0,1.591789856E0,4.167633362E0,4.799704929E0
6.788366375E0,9.990225220E-1,2.191742249E0,3.394491119E0,4.162253001E0
6.798287375E0,5.520520020E-1,2.528092804E0,2.295925598E0,3.459376966E0
6.808208375E0,1.311273193E-1,2.795586548E0,1.048419800E0,2.988592076E0
6.818129375E0,-3.330574036E-1,2.921325073E0,-8.681945801E-2,2.941531070E0
6.828050375E0,-7.852670288E-1,2.892285461E0,-9.900411987E-1,3.156285962E0
6.837971375E0,-1.226848755E0,2.694396973E0,-1.638043671E0,3.383507053E0
6.847892375E0,-1.524280243E0,2.377655640E0,-2.116748199E0,3.529489983E0
6.857813375E0,-1.554667053E0,2.086062012E0,-2.302212524E0,3.474021714E0
6.867734375E0,-1.241069183E0,1.844165039E0,-2.207758942E0,3.132953392E0
6.877655375E0,-6.788383484E-1,1.644330597E0,-1.808389435E0,2.536713812E0
6.887576375E0,-1.215472412E-1,1.508263550E0,-1.174308014E0,1.915367322E0
6.897497375E0,5.354365540E-1,1.368603973E0,-3.821553040E-1,1.518489979E0
6.907418375E0,1.170865173E0,1.331032104E0,5.113366699E-1,1.845003227E0
6.917339375E0,1.561403046E0,1.278191986E0,1.412013702E0,2.462831078E0
6.927260375E0,1.772314453E0,1.087787933E0,2.172731781E0,3.007514672E0
6.937181375E0,1.762135620E0,8.869056702E-1,2.757116547E0,3.390193986E0
6.947102375E0,1.611698456E0,7.548802185E-1,3.148552551E0,3.616738755E0
6.957023375E0,1.573078766E0,6.761439514E-1,3.261866913E0,3.683954832E0
6.966944375E0,1.926493835E0,6.556365967E-1,3.130440216E0,3.733750633E0
6.976865375E0,2.684966583E0,7.605683899E-1,2.846480713E0,3.986221554E0
6.986786375E0,3.832180939E0,8.619076538E-1,2.527793427E0,4.670999375E0
6.996707375E0,5.268444214E0,9.078620911E-1,2.253563690E0,5.801660738E0
7.006628375E0,6.683751068E0,7.942483521E-1,1.909129944E0,6.996294443E0
7.016549375E0,8.331674194E0,4.399351501E-1,1.375339966E0,8.455879483E0
7.026470375E0,1.019470001E1,-8.981323242E-2,8.500822449E-1,1.023047480E1
7.036391375E0,1.195024933E1,-5.969586182E-1,2.757266235E-1,1.196832669E1
7.046312375E0,1.377779892E1,-9.349557495E-1,-2.294728088E-1,1.381139179E1
7.056233375E0,1.593017303E1,-9.636959839E-1,-4.876858521E-1,1.596674545E1
7.066154375E0,1.835722595E1,-9.199868774E-1,-3.296145630E-1,1.838321969E1
7.076075375E0,2.063848206E1,-1.264570312E0,3.330574036E-1,2.067986960E1
7.085996375E0,2.191757217E1,-1.975891113E0,1.334924011E0,2.204690767E1
7.095917375E0,2.217249207E1,-2.552492065E0,2.499502258E0,2.245845346E1
7.105839375E0,2.203178467E1,-2.952909393E0,3.424279175E0,2.249099592E1
7.115760375E0,2.212489105E1,-3.442690887E0,4.003275146E0,2.274618949E1
7.125681375E0,2.250270538E1,-3.954177246E0,4.190386047E0,2.322857298E1
7.135602375E0,2.310684906E1,-4.396507416E0,4.005071411E0,2.385993185E1
7.145523375E0,2.386262741E1,-4.936883698E0,3.498824158E0,2.461787111E1
7.155444375E0,2.472573257E1,-5.630391541E0,2.801125031E0,2.551292734E1
7.165365375E0,2.524455368E1,-6.100414124E0,2.282154236E0,2.607126332E1
7.175286375E0,2.500175858E1,-6.085594940E0,2.163002014E0,2.582248972E1
7.185207375E0,2.388118881E1,-5.649701385E0,2.361040192E0,2.465369781E1
7.195128375E0,2.186398361E1,-4.926704865E0,2.824925537E0,2.258951979E1
7.205049375E0,1.926643524E1,-4.265230408E0,3.481759644E0,2.003772361E1
7.214970375E0,1.631801651E1,-3.682941284E0,3.949686584E0,1.718841888E1
7.224891375E0,1.336316116E1,-3.192261658E0,4.213737488E0,1.437081050E1
7.234812375E0,1.075887680E1,-2.841840363E0,4.375401306E0,1.195715782E1
7.244733375E0,8.631351013E0,-2.380050659E0,4.374203796E0,9.964864289E0
7.254654375E0,6.913074188E0,-1.587149506E0,4.248614960E0,8.268032859E0
7.264575375E0,5.451962585E0,-6.539900208E-1,3.902534637E0,6.736570016E0
7.274496375E0,4.317322083E0,1.672023010E-1,3.389551392E0,5.491473865E0
7.284417375E0,3.403322754E0,8.913963318E-1,2.767145691E0,4.475967880E0
7.294338375E0,2.567610626E0,1.491049347E0,1.990111542E0,3.574408543E0
7.304259375E0,1.858086090E0,1.771865387E0,9.630972290E-1,2.742179268E0
7.314180375E0,8.168513489E-1,1.803749084E0,-1.758842468E-1,1.987886353E0
7.324101375E0,-3.212319946E-1,1.675016785E0,-1.112935638E0,2.036540439E0
7.334022375E0,-1.271006927E0,1.461560669E0,-1.829196167E0,2.664127778E0
7.343943375E0,-2.152972870E0,1.384920044E0,-2.441872101E0,3.537800880E0
7.353864375E0,-2.613864441E0,1.296304321E0,-2.834655304E0,4.067918743E0
7.363785375E0,-2.708318024E0,1.000669098E0,-3.003055115E0,4.165893083E0
7.373706375E0,-2.491718445E0,5.789959717E-1,-2.975961456E0,3.924314428E0
7.383627375E0,-2.058070221E0,2.746788025E-1,-2.801274719E0,3.486867008E0
7.393548375E0,-1.563648376E0,1.326242065E-1,-2.589764557E0,3.028112595E0
7.403469750E0,-8.637039185E-1,1.643582153E-1,-2.118694153E0,2.293875104E0
7.413390750E0,-1.216969299E-1,2.489323425E-1,-1.349743195E0,1.377891195E0
7.423311750E0,4.914280701E-1,3.261717224E-1,-6.304888916E-1,8.633688569E-1
7.433232750E0,1.143472137E0,3.881428528E-1,6.152206421E-2,1.209118839E0
7.443153750E0,1.758393402E0,4.526586914E-1,8.686436462E-1,2.012806258E0
7.453074750E0,2.027384033E0,4.873864746E-1,1.693727875E0,2.686362914E0
7.462995750E0,2.021396484E0,4.254153442E-1,2.309696960E0,3.098664553E0
7.472916750E0,1.685195618E0,3.134481812E-1,2.594255219E0,3.109388070E0
7.482837750E0,1.149908752E0,7.708969116E-2,2.365830231E0,2.631612745E0
7.492758750E0,8.316705322E-1,-2.817141724E-1,1.783241730E0,1.987709691E0
7.502679750E0,1.097667389E0,-6.529421997E-1,1.025218048E0,1.637766546E0
7.512600750E0,2.321372681E0,-1.166973267E0,1.781295776E-1,2.604290282E0
7.522521750E0,4.094285889E0,-1.931283875E0,-6.833290100E-1,4.578206295E0
7.532442750E0,6.221961365E0,-2.873424683E0,-1.584904175E0,7.034294128E0
7.542363750E0,8.325237579E0,-3.970343628E0,-2.230361938E0,9.489347905E0
7.552284750E0,9.877060547E0,-4.934039612E0,-2.500250702E0,1.132043840E1
7.562205750E0,1.153321655E1,-5.701044617E0,-2.486778717E0,1.310347519E1
7.572126750E0,1.328457458E1,-6.561156006E0,-2.301314392E0,1.499415679E1
7.582047750E0,1.505973312E1,-7.299121399E0,-2.049388275E0,1.686038930E1
7.591968750E0,1.774814255E1,-8.033943329E0,-1.738484802E0,1.955922132E1
7.601889750E0,2.071766739E1,-8.464747467E0,-1.378782806E0,2.242263887E1
7.611810750E0,2.380634445E1,-8.945547638E0,-1.103804626E0,2.545551499E1
7.621731750E0,2.652648788E1,-1.015398468E1,-9.388476562E-1,2.841899715E1
7.631652750E0,2.867781418E1,-1.133667526E1,-9.675878906E-1,3.085244655E1
7.641574750E0,3.066583008E1,-1.231204697E1,-9.515711975E-1,3.305881309E1
7.651495750E0,3.174508575E1,-1.290511368E1,-8.348139954E-1,3.427811755E1
7.661416750E0,3.157189590E1,-1.308578796E1,-5.435197449E-1,3.418066517E1
7.671337750E0,3.029984116E1,-1.273012756E1,-8.068222046E-2,3.286552953E1
7.681258750E0,2.803400299E1,-1.194111832E1,4.724176025E-1,3.047488817E1
7.691179750E0,2.514650757E1,-1.086740112E1,1.104852448E0,2.741656341E1
7.701100750E0,2.212818420E1,-9.909393311E0,1.663341064E0,2.430266067E1
7.711021750E0,1.897469193E1,-9.096583557E0,2.191592560E0,2.115631925E1
7.720942750E0,1.590472595E1,-8.081843719E0,2.650987244E0,1.803619247E1
7.730863750E0,1.304342606E1,-6.744674377E0,2.775977325E0,1.494415089E1
7.740784750E0,1.034588562E1,-5.148393860E0,2.552492065E0,1.183463241E1
7.750705750E0,7.893984375E0,-3.307821350E0,2.113904114E0,8.816193169E0
7.760626750E0,5.960455170E0,-1.319356384E0,1.701062622E0,6.337297621E0
7.770547750E0,4.601431274E0,3.519181824E-1,1.106648712E0,4.745702008E0
7.780468750E0,3.647914124E0,1.580563202E0,5.571414185E-1,4.014456881E0
7.790389750E0,2.810106354E0,2.574346619E0,1.962419128E-1,3.816080335E0
7.800310750E0,1.823657684E0,3.187172241E0,-2.639012146E-1,3.681499436E0
7.810231750E0,7.982899475E-1,3.328628082E0,-7.229965210E-1,3.498536225E0
7.820152750E0,2.544708252E-2,3.185974731E0,-1.074615326E0,3.362421842E0
7.830073750E0,-3.023712158E-1,2.924318848E0,-1.492695923E0,3.297151830E0
7.839994750E0,-1.752854919E-1,2.514770508E0,-1.928290100E0,3.173814491E0
7.849915750E0,-1.023870850E-1,2.118544464E0,-2.379002838E0,3.187219519E0
7.859836750E0,7.933502197E-3,1.907034302E0,-2.687960358E0,3.295750848E0
7.869757750E0,3.342549133E-1,1.818268890E0,-2.748584290E0,3.312483012E0
7.879678750E0,7.934999084E-1,1.785187683E0,-2.514022064E0,3.183841093E0
7.889599750E0,1.249900818E0,1.752405853E0,-1.961520996E0,2.912171517E0
7.899520750E0,1.591191101E0,1.608405304E0,-1.300196228E0,2.609476379E0
7.909441750E0,1.763033752E0,1.381776581E0,-5.760021973E-1,2.312871173E0
7.919362750E0,1.704505463E0,1.197360077E0,1.538800049E-1,2.088705121E0
7.929283750E0,1.521885223E0,1.070424042E0,7.738906860E-1,2.015154847E0
7.939204750E0,1.225950623E0,9.720785522E-1,1.244062958E0,1.998895766E0
7.949125750E0,9.315129089E-1,8.726852417E-1,1.472787323E0,1.948948006E0
7.959046750E0,7.667056274E-1,7.306306458E-1,1.459465027E0,1.803246191E0
7.968967750E0,7.249424744E-1,4.559518433E-1,1.346150665E0,1.595479642E0
7.978888750E0,7.388635254E-1,8.711883545E-2,9.258247375E-1,1.187712274E0
7.988809750E0,9.265731812E-1,-2.835104370E-1,3.138972473E-1,1.018551673E0
7.998730750E0,1.077758789E0,-5.322930908E-1,-3.499722290E-1,1.251950679E0
8.008651750E0,1.639839935E0,-9.144483948E-1,-9.786648560E-1,2.117327509E0
8.018572750E0,2.672841797E0,-1.591939545E0,-1.684147797E0,3.537613403E0
8.028493750E0,4.236340485E0,-2.461780701E0,-2.350711670E0,5.434407997E0
8.038414750E0,6.801406403E0,-3.388503571E0,-2.771336975E0,8.088349283E0
8.048335750E0,9.887688446E0,-4.420307922E0,-3.087180176E0,1.126215727E1
8.058256750E0,1.334684509E1,-5.790857849E0,-3.179388428E0,1.489230739E1
8.068177750E0,1.629586258E1,-6.914271698E0,-3.027154999E0,1.795900770E1
8.078098750E0,1.809512100E1,-7.366181946E0,-2.473456421E0,1.969294359E1
8.088019750E0,1.933334610E1,-7.951764221E0,-1.629960480E0,2.096820443E1
8.097940750E0,2.038041870E1,-9.244625702E0,-1.203197937E0,2.241143137E1
8.107861750E0,2.167672302E1,-1.089539291E1,-9.523196411E-1,2.427955561E1
8.117782750E0,2.315909042E1,-1.257954071E1,-9.300160217E-1,2.637144751E1
8.127703750E0,2.472857666E1,-1.419168823E1,-1.104553070E0,2.853290304E1
8.137624750E0,2.620809998E1,-1.528935562E1,-1.155447235E0,3.036385940E1
8.147546750E0,2.731699402E1,-1.593990280E1,-1.118773499E0,3.164727978E1
8.157467750E0,2.790512100E1,-1.628598312E1,-1.048120422E0,3.232688635E1
8.167388750E0,2.754137741E1,-1.590936630E1,-8.340655518E-1,3.181715058E1
8.177309750E0,2.612622025E1,-1.445020065E1,-5.628295898E-1,2.986142094E1
8.187230750E0,2.397743866E1,-1.240365646E1,-3.239263916E-1,2.699765150E1
8.197151750E0,2.126522873E1,-1.066292633E1,-5.074447632E-2,2.378887399E1
8.207072750E0,1.802371948E1,-9.204209747E0,1.727407837E-1,2.023862101E1
8.216993750E0,1.508547958E1,-7.838599548E0,5.342390442E-1,1.700884324E1
8.226914750E0,1.278281799E1,-6.468798065E0,9.132508850E-1,1.435548019E1
8.236835750E0,1.098894836E1,-4.954247589E0,1.207838287E0,1.211447187E1
8.246756750E0,9.362281036E0,-3.241808624E0,1.432970123E0,1.001074586E1
8.256677750E0,7.641758881E0,-1.509610748E0,1.452729034E0,7.923750693E0
8.266598750E0,5.941145325E0,9.774673462E-2,1.349892883E0,6.093354822E0
8.276519750E0,4.424948273E0,1.413211212E0,1.268013153E0,4.815100259E0
8.286440750E0,3.031196594E0,2.340682526E0,1.061143341E0,3.974037326E0
8.296361750E0,1.803000641E0,2.859503632E0,7.306306458E-1,3.458524754E0
8.306282750E0,6.990463257E-1,2.953957214E0,4.475692749E-1,3.068362307E0
8.316203750E0,-2.383044434E-1,2.711461487E0,1.493893433E-1,2.726009827E0
8.326124750E0,-1.118324432E0,2.412084045E0,-2.068698120E-1,2.666757225E0
8.336045750E0,-1.791923676E0,2.072590027E0,-5.766009521E-1,2.799837234E0
8.345966750E0,-2.096989288E0,1.629661102E0,-1.053209839E0,2.856993236E0
8.355887750E0,-2.145338745E0,1.280287628E0,-1.565145264E0,2.948100141E0
8.365808750E0,-1.883233795E0,1.177152100E0,-1.940564575E0,2.949245236E0
8.375729750E0,-1.373693390E0,1.143322449E0,-2.266586609E0,2.886457103E0
8.385650750E0,-7.301815796E-1,1.149160309E0,-2.352058868E0,2.717704082E0
8.395571750E0,-1.386117554E-1,1.319655762E0,-2.016456757E0,2.413877047E0
8.405493042E0,3.227288818E-1,1.536554718E0,-1.422042847E0,2.118339017E0
8.415414042E0,7.503895569E-1,1.562151489E0,-7.325765991E-1,1.881507437E0
8.425335042E0,1.064286804E0,1.428479462E0,-2.874023438E-2,1.781596468E0
8.435256042E0,1.148262177E0,1.211430817E0,6.509962463E-1,1.791610103E0
8.445177042E0,9.660910034E-1,1.030307465E0,1.340761871E0,1.947436185E0
8.455098042E0,6.315367126E-1,9.301657104E-1,1.908830566E0,2.215328644E0
8.465019042E0,3.415896606E-1,7.683522034E-1,2.172582092E0,2.329626913E0
8.474940042E0,2.755769348E-1,5.852828979E-1,2.202968903E0,2.295990136E0
8.484861042E0,4.245172119E-1,4.908293152E-1,2.163900146E0,2.259113128E0
8.494782042E0,7.694000244E-1,3.150947571E-1,1.944755859E0,2.115026349E0
8.504703042E0,1.516496429E0,-1.989363098E-1,1.414109344E0,2.083036801E0
8.514624042E0,2.726430359E0,-7.783813477E-1,7.574249268E-1,2.934790034E0
8.524545042E0,4.134252777E0,-1.286873932E0,1.474433899E-1,4.332416196E0
8.534466042E0,6.082750854E0,-2.110311584E0,-4.725672913E-1,6.455741072E0
8.544387042E0,9.121132507E0,-3.551065521E0,-1.203796692E0,9.861756995E0
8.554308042E0,1.285541702E1,-5.252427521E0,-1.849254456E0,1.400962111E1
8.564229042E0,1.640423721E1,-6.526577911E0,-2.224673767E0,1.779450452E1
8.574150042E0,1.913291290E1,-6.955436096E0,-2.503094788E0,2.051126351E1
8.584071042E0,2.079370926E1,-6.787185974E0,-2.774031372E0,2.204857112E1
8.593992042E0,2.203717346E1,-7.182813263E0,-2.579136658E0,2.332127283E1
8.603913042E0,2.330997665E1,-8.143365784E0,-2.091001740E0,2.477986493E1
8.613834042E0,2.445180222E1,-9.572144623E0,-1.344055023E0,2.629302318E1
8.623755042E0,2.550052139E1,-1.106992996E1,-5.331912231E-1,2.780475200E1
8.633677042E0,2.639670776E1,-1.228166016E1,4.550537109E-2,2.911404176E1
8.643597042E0,2.712389557E1,-1.344788498E1,4.399351501E-1,3.027779490E1
8.653519042E0,2.765798492E1,-1.445364349E1,7.387138367E-1,3.121566335E1
8.663440042E0,2.759511566E1,-1.469209763E1,9.352551270E-1,3.127655421E1
8.673361042E0,2.669488770E1,-1.386910904E1,9.253756714E-1,3.009693564E1
8.683282042E0,2.490595779E1,-1.236324051E1,6.647676086E-1,2.781363632E1
8.693203042E0,2.224089981E1,-1.069570816E1,3.932322693E-1,2.468218850E1
8.703124042E0,1.905238037E1,-9.049730988E0,2.089654541E-1,2.109347044E1
8.713045042E0,1.570174805E1,-7.513475647E0,7.753875732E-2,1.740698769E1
8.722966042E0,1.276141251E1,-6.231391754E0,6.316864014E-2,1.420168591E1
8.732887042E0,1.053883438E1,-5.041815491E0,1.607656860E-1,1.168386833E1
8.742808042E0,9.004674683E0,-3.674109650E0,2.318678284E-1,9.728155557E0
8.752729042E0,7.922125854E0,-2.232008514E0,2.667453003E-1,8.234870559E0
8.762650042E0,6.924151154E0,-8.586145020E-1,2.561174011E-1,6.981882567E0
8.772571042E0,5.801785126E0,3.588038635E-1,1.445993042E-1,5.814667645E0
8.782492042E0,4.446204071E0,1.231938171E0,-1.465452576E-1,4.616045690E0
8.792413042E0,3.074306946E0,1.623823242E0,-4.499642944E-1,3.505799907E0
8.802334042E0,1.619182892E0,1.697021027E0,-8.017327881E-1,2.478791856E0
8.812255042E0,9.220825195E-2,1.558109894E0,-1.254541168E0,2.002519000E0
8.822176042E0,-1.283580780E0,1.366059265E0,-1.630110168E0,2.484141038E0
8.832097042E0,-2.436782684E0,1.439107361E0,-1.885030060E0,3.400335009E0
8.842018042E0,-3.131787415E0,1.481469269E0,-2.083816681E0,4.042911768E0
8.851939042E0,-3.178190918E0,1.278491364E0,-2.189047852E0,4.065386596E0
8.861860042E0,-2.592908020E0,9.895921326E-1,-2.229463806E0,3.559912001E0
8.871781042E0,-1.913770294E0,7.445516968E-1,-2.139051819E0,2.965200946E0
8.881702042E0,-1.274300079E0,4.409829712E-1,-1.880689087E0,2.314151705E0
8.891623042E0,-8.521778870E-1,2.571652222E-1,-1.537752228E0,1.776801344E0
8.901544042E0,-6.487509155E-1,2.029779053E-1,-1.163081360E0,1.347158502E0
8.911465042E0,-3.787124634E-1,2.110610962E-1,-7.809260559E-1,8.932051394E-1
8.921386042E0,7.304809570E-2,3.387455750E-1,-3.300636292E-1,4.785672242E-1
8.931307042E0,6.114784241E-1,5.794450378E-1,1.416055298E-1,8.542333060E-1
8.941228042E0,1.236129456E0,6.589297485E-1,5.810916138E-1,1.516532858E0
8.951149042E0,1.759740601E0,5.852828979E-1,9.656419373E-1,2.090862837E0
8.961070042E0,2.180365906E0,4.586462402E-1,1.207239532E0,2.534122954E0
8.970991042E0,2.877466278E0,1.966909790E-1,1.169667664E0,3.112333846E0
8.980912042E0,3.882326660E0,-3.935316467E-1,8.473878479E-1,3.993168368E0
8.990833042E0,5.177433472E0,-1.206042023E0,2.495310974E-1,5.321900082E0
9.000754042E0,6.974296875E0,-2.201621704E0,-6.114784241E-1,7.339064034E0
9.010675042E0,9.223369904E0,-3.284170532E0,-1.520088959E0,9.907926065E0
9.020596042E0,1.170895111E1,-4.086651764E0,-2.351909180E0,1.262266753E1
9.030517042E0,1.361059662E1,-4.545896759E0,-2.912194061E0,1.464221267E1
9.040438042E0,1.484223541E1,-4.995861053E0,-2.888393555E0,1.592461607E1
9.050359042E0,1.571267532E1,-5.263953552E0,-2.455044708E0,1.675185415E1
9.060280042E0,1.665272049E1,-5.335355072E0,-1.863923950E0,1.758559996E1
9.070201042E0,1.791130325E1,-5.562283173E0,-1.022972717E0,1.878297771E1
9.080122042E0,1.927706314E1,-5.767356720E0,-1.535806274E-1,2.012190731E1
9.090043042E0,2.084235809E1,-6.249354401E0,5.533992004E-1,2.176613360E1
9.099964042E0,2.226335312E1,-7.481891327E0,9.871971130E-1,2.350766148E1
9.109885042E0,2.289578796E1,-8.686137085E0,1.141975250E0,2.451469338E1
9.119806042E0,2.290012894E1,-9.486073608E0,1.027463379E0,2.480840944E1
9.129727042E0,2.347553238E1,-1.010832962E1,8.081694031E-1,2.557209585E1
9.139648042E0,2.475117966E1,-1.021460861E1,6.221063232E-1,2.678331831E1
9.149570042E0,2.574107117E1,-9.881251831E0,4.071533203E-1,2.757549014E1
9.159491042E0,2.618429947E1,-9.130263519E0,2.969824219E-1,2.773206536E1
9.169412042E0,2.569766144E1,-7.955356750E0,4.296066284E-1,2.690431315E1
9.179333042E0,2.362252670E1,-6.818620605E0,7.969427490E-1,2.459984700E1
9.189254042E0,2.010199768E1,-6.136189728E0,1.399888916E0,2.106425465E1
9.199175042E0,1.617431534E1,-5.921835480E0,1.989812164E0,1.733885707E1
9.209096042E0,1.270393204E1,-5.462889862E0,2.499502258E0,1.405277789E1
9.219017042E0,1.013946487E1,-4.574337616E0,2.825973358E0,1.147690890E1
9.228938042E0,8.201894073E0,-3.362757111E0,2.895728302E0,9.325472866E0
9.238859042E0,6.349645844E0,-1.892065430E0,2.746189270E0,7.172131443E0
9.248780042E0,4.566853180E0,-5.141807556E-1,2.384691010E0,5.177574821E0
9.258701042E0,3.095712433E0,5.351371765E-1,2.073937225E0,3.764441908E0
9.268622042E0,1.851200409E0,1.289718018E0,1.739382935E0,2.848818792E0
9.278543042E0,4.296066284E-1,1.857936401E0,1.278641052E0,2.295955676E0
9.288464042E0,-9.035211182E-1,2.077829132E0,7.994874573E-1,2.402686935E0
9.298385042E0,-2.061962128E0,1.992356873E0,3.097059631E-1,2.883936807E0
9.308306042E0,-2.761158142E0,1.831740875E0,-3.748205566E-1,3.334630320E0
9.318227042E0,-2.839894409E0,1.533710632E0,-1.263223114E0,3.465977668E0
9.328148042E0,-2.589165802E0,1.295555878E0,-2.257754974E0,3.671471382E0
9.338069042E0,-2.145189056E0,1.267115021E0,-3.197500763E0,4.053569747E0
9.347990042E0,-1.457818451E0,1.309626617E0,-3.692970428E0,4.180716099E0
9.357911042E0,-5.737568665E-1,1.323547668E0,-3.588487701E0,3.867585727E0
9.367832042E0,3.492237854E-1,1.278191986E0,-3.081042938E0,3.353886938E0
9.377753042E0,1.243314514E0,1.153950348E0,-2.281854858E0,2.843289289E0
9.387674042E0,1.853894806E0,1.045276337E0,-1.344953156E0,2.517623396E0
9.397595125E0,1.973945160E0,9.596543884E-1,-5.171745300E-1,2.254964641E0
9.407516125E0,1.877096558E0,1.033899994E0,1.929487610E-1,2.151666774E0
9.417437125E0,1.698966980E0,1.037941589E0,6.670129395E-1,2.099694693E0
9.427358125E0,1.498982849E0,8.758287048E-1,8.643026733E-1,1.939341283E0
9.437279125E0,1.332528992E0,8.065228271E-1,1.011596375E0,1.857266758E0
9.447200125E0,1.268761597E0,8.532257080E-1,1.082848206E0,1.873582220E0
9.457121125E0,1.265618134E0,8.384065247E-1,9.725276184E-1,1.802921166E0
9.467042125E0,1.391805725E0,7.484436035E-1,6.840774536E-1,1.721990989E0
9.476963125E0,1.740879822E0,4.989125061E-1,2.927911377E-1,1.834476190E0
9.486884125E0,2.766846313E0,-2.089654541E-1,-3.019221497E-1,2.791104095E0
9.496805125E0,4.963378601E0,-1.638642426E0,-1.239871674E0,5.371923110E0
9.506726125E0,7.822732544E0,-3.778592377E0,-2.370320892E0,9.005072234E0
9.516647125E0,1.107472000E1,-5.677992554E0,-3.305576019E0,1.287695055E1
9.526568125E0,1.471095840E1,-6.480773163E0,-3.981121216E0,1.656085880E1
9.536489125E0,1.773946060E1,-6.185587006E0,-4.283642120E0,1.926913436E1
9.546410125E0,1.957209961E1,-5.614374847E0,-4.181105347E0,2.078629188E1
9.556331125E0,2.012534912E1,-5.512137451E0,-3.599414978E0,2.117472844E1
9.566252125E0,1.992356873E1,-6.236930237E0,-2.702629852E0,2.105117806E1
9.576173125E0,2.004317001E1,-7.444169769E0,-1.611997833E0,2.144161526E1
9.586094125E0,2.128393982E1,-9.002279663E0,-6.465055847E-1,2.311850131E1
9.596015125E0,2.289009979E1,-1.078058167E1,-1.948947144E-1,2.530248196E1
9.605936125E0,2.440719498E1,-1.221504868E1,-1.585203552E-1,2.729365695E1
9.615857125E0,2.582714218E1,-1.299328033E1,-1.835183716E-1,2.891194020E1
9.625779125E0,2.674682968E1,-1.336675369E1,-4.760101318E-1,2.990467502E1
9.635700125E0,2.709305969E1,-1.353620132E1,-1.227148132E0,3.031119467E1
9.645621125E0,2.686448502E1,-1.338696167E1,-1.990410919E0,3.008110759E1
9.655542125E0,2.593401993E1,-1.262654297E1,-2.402953033E0,2.894438046E1
9.665463125E0,2.398297714E1,-1.112172226E1,-2.329156494E0,2.653866742E1
9.675384125E0,2.130803970E1,-9.494755554E0,-1.749112701E0,2.339321129E1
9.685305125E0,1.814900894E1,-8.074658661E0,-7.939489746E-1,1.988006522E1
9.695226125E0,1.495599884E1,-6.551426239E0,1.341210938E-1,1.632853562E1
9.705147125E0,1.218256622E1,-4.948260040E0,1.024619293E0,1.318901217E1
9.715068125E0,9.766590271E0,-3.447181549E0,1.685345306E0,1.049331859E1
9.724989125E0,7.560477905E0,-2.034269714E0,2.047741699E0,8.092732882E0
9.734910125E0,5.497767334E0,-5.788462830E-1,2.146985321E0,5.930434609E0
9.744831125E0,3.649411011E0,6.881190491E-1,2.028431854E0,4.231577051E0
9.754752125E0,2.099384308E0,1.611548767E0,1.676363983E0,3.132842177E0
9.764673125E0,1.056952057E0,2.307301941E0,1.278790741E0,2.841847226E0
9.774594125E0,3.135978699E-1,2.777773590E0,9.557624817E-1,2.954293767E0
9.784515125E0,-3.338058472E-1,2.919229431E0,6.062393188E-1,3.000142151E0
9.794436125E0,-9.340576172E-1,2.750979309E0,3.186872864E-1,2.922655022E0
9.804357125E0,-1.418001251E0,2.415526886E0,6.735992432E-2,2.801791399E0
9.814278125E0,-1.703906708E0,2.169588318E0,-3.276686096E-1,2.778088957E0
9.824199125E0,-1.751956787E0,2.100132751E0,-8.345146179E-1,2.859427356E0
9.834120125E0,-1.509461060E0,2.091001740E0,-1.251547394E0,2.866554002E0
9.844041125E0,-8.708889771E-1,2.030228119E0,-1.436712341E0,2.635226020E0
9.853962125E0,1.499880981E-1,1.854343872E0,-1.430425415E0,2.346743380E0
9.863883125E0,1.077309723E0,1.799108734E0,-1.117426300E0,2.376137625E0
9.873804125E0,1.608255615E0,1.642983398E0,-5.023553467E-1,2.353346865E0
9.883725125E0,1.777104492E0,1.314865723E0,1.419049072E-1,2.215199595E0
9.893646125E0,1.907183990E0,1.019380188E0,8.086184692E-1,2.308755199E0
9.903567125E0,1.965712280E0,7.893086243E-1,1.452429657E0,2.568381744E0
9.913488125E0,1.978884888E0,5.911207581E-1,1.993105316E0,2.870170370E0
9.923409125E0,2.142943726E0,5.096900940E-1,2.423011322E0,3.274595497E0
9.933330125E0,2.286345520E0,5.611830139E-1,2.620450745E0,3.522650184E0
9.943251125E0,2.384391632E0,4.819976807E-1,2.505639496E0,3.492259226E0
9.953172125E0,2.587818604E0,2.700384521E-1,2.152074738E0,3.376559131E0
9.963093125E0,2.751128998E0,1.001417542E-1,1.660646667E0,3.215040667E0
9.973014125E0,3.245550842E0,-1.357676697E-1,1.016536102E0,3.403730127E0
9.982935125E0,4.150868225E0,-7.110214233E-1,2.866539001E-1,4.221069645E0
9.992856125E0,5.598507843E0,-1.698068848E0,-4.876858521E-1,5.870652891E0
1.000277712E1,7.734266510E0,-2.879861298E0,-1.271455994E0,8.350393996E0
1.001269812E1,1.067100952E1,-3.904779968E0,-2.023342438E0,1.154173581E1
1.002261912E1,1.389066422E1,-4.749623108E0,-2.626737671E0,1.491339072E1
1.003254012E1,1.652847885E1,-5.445226593E0,-2.959795074E0,1.765223761E1
1.004246112E1,1.819017334E1,-5.894592133E0,-2.829865265E0,1.932968598E1
1.005238212E1,1.855406662E1,-6.181994476E0,-2.138453064E0,1.967341926E1
1.006230312E1,1.834001175E1,-6.400689697E0,-1.111738129E0,1.945663952E1
1.007222412E1,1.869866592E1,-7.040758667E0,-1.930984497E-2,1.998030938E1
1.008214512E1,2.027324158E1,-8.113278351E0,6.947053528E-1,2.184747640E1
1.009206712E1,2.266766235E1,-9.426796875E0,7.803273010E-1,2.456209125E1
1.010198813E1,2.479159561E1,-1.047252228E1,2.317181396E-1,2.691376282E1
1.011190913E1,2.615331390E1,-1.116977234E1,-6.321354675E-1,2.844572442E1
1.012183012E1,2.706985794E1,-1.172871002E1,-1.381776581E0,2.953386453E1
1.013175112E1,2.714694763E1,-1.194276489E1,-1.914369049E0,2.971954252E1
1.014167212E1,2.585348740E1,-1.165566193E1,-2.149380341E0,2.844076478E1
1.015159312E1,2.367072647E1,-1.093625793E1,-1.988464966E0,2.615069831E1
1.016151412E1,2.110281647E1,-1.012195129E1,-1.549577637E0,2.345600033E1
1.017143512E1,1.830663116E1,-9.431137848E0,-1.010997620E0,2.061798297E1
1.018135612E1,1.548200500E1,-8.478518829E0,-4.255650330E-1,1.765669465E1
1.019127712E1,1.289149200E1,-7.263794861E0,2.484832764E-1,1.479915625E1
1.020119812E1,1.063882645E1,-5.885461121E0,8.384065247E-1,1.218713282E1
1.021111912E1,8.967102814E0,-4.355492706E0,1.144669647E0,1.003441668E1
1.022104013E1,7.702233124E0,-2.888842621E0,1.188229065E0,8.311539875E0
1.023096112E1,6.523135071E0,-1.596729584E0,9.907896423E-1,6.788409286E0
1.024088212E1,5.255720673E0,-4.204756165E-1,8.258326721E-1,5.336796711E0
1.025080312E1,3.875590668E0,5.415737915E-1,7.140151978E-1,3.977854057E0
1.026072412E1,2.633773041E0,1.155147858E0,5.502557373E-1,2.928123696E0
1.027064512E1,1.642983398E0,1.514400787E0,2.140548706E-1,2.244687880E0
1.028056612E1,5.818400574E-1,1.753453674E0,-2.068698120E-1,1.859013921E0
1.029048712E1,-2.935395813E-1,1.719624023E0,-6.608757019E-1,1.865483573E0
1.030040812E1,-7.282356262E-1,1.451531525E0,-1.248254242E0,2.048269891E0
1.031032912E1,-8.884025574E-1,1.292262726E0,-1.951042786E0,2.503152015E0
1.032025012E1,-8.111631775E-1,1.243464203E0,-2.415975952E0,2.835688404E0
1.033017113E1,-5.174739075E-1,1.210682373E0,-2.613415375E0,2.926340885E0
1.034009212E1,-1.689985657E-1,1.137185211E0,-2.471061401E0,2.725416513E0
1.035001312E1,3.218307495E-1,1.040037231E0,-1.981279907E0,2.260690723E0
1.035993412E1,8.369096375E-1,1.060993652E0,-1.306483154E0,1.879633875E0
1.036985512E1,1.096469879E0,1.110989685E0,-4.391867065E-1,1.621551491E0
1.037977612E1,1.290915527E0,1.194066925E0,4.143383789E-1,1.806636381E0
1.038969712E1,1.454076233E0,1.303489380E0,1.101409607E0,2.241991386E0
1.039961775E1,1.640139313E0,1.383872223E0,1.466500397E0,2.599188856E0
1.040953875E1,1.792223053E0,1.422491913E0,1.513203278E0,2.743233653E0
1.041945975E1,1.786385193E0,1.288071442E0,1.459764404E0,2.642198367E0
1.042938075E1,1.758243713E0,1.099912720E0,1.357077942E0,2.478485321E0
1.043930175E1,2.026635590E0,1.005459137E0,1.144220581E0,2.535239757E0
1.044922275E1,2.432441711E0,7.352709961E-1,8.593629456E-1,2.682517621E0
1.045914375E1,3.205583954E0,2.628533936E-1,5.216651917E-1,3.258373055E0
1.046906475E1,4.380341034E0,-2.374063110E-1,1.652563477E-1,4.389881432E0
1.047898575E1,6.138435059E0,-1.063089294E0,-4.547543335E-1,6.246386581E0
1.048890675E1,8.683891754E0,-2.626438293E0,-1.451980591E0,9.187839885E0
1.049882775E1,1.144415176E1,-4.289180603E0,-2.491718445E0,1.247294435E1
1.050874875E1,1.381596954E1,-5.400020599E0,-3.365002441E0,1.521066988E1
1.051866975E1,1.496647705E1,-5.763165436E0,-3.598367157E0,1.643647643E1
1.052859075E1,1.491737915E1,-5.485941925E0,-2.916385345E0,1.615948833E1
1.053851175E1,1.468087097E1,-5.349575500E0,-1.622775421E0,1.570921165E1
1.054843275E1,1.502006561E1,-6.013145599E0,-1.682501221E-1,1.617988254E1
1.055835375E1,1.593765747E1,-7.136409760E0,1.297352142E0,1.751057944E1
1.056827575E1,1.739921814E1,-8.324040070E0,2.254461823E0,1.941919239E1
1.057819675E1,1.922407333E1,-9.173224182E0,2.426454163E0,2.143830024E1
1.058811775E1,2.071632019E1,-9.487271118E0,1.681902466E0,2.284738566E1
1.059803875E1,2.208028381E1,-9.691596222E0,1.507365417E-1,2.411407664E1
1.060795975E1,2.356609406E1,-1.004995102E1,-1.555116119E0,2.566672341E1
1.061788075E1,2.469220230E1,-1.018736526E1,-2.946023712E0,2.687315242E1
1.062780175E1,2.525308594E1,-1.012120285E1,-3.839515686E0,2.747542497E1
1.063772275E1,2.525548096E1,-1.017613861E1,-4.418661346E0,2.758473642E1
1.064764375E1,2.450793549E1,-9.894574127E0,-4.540058899E0,2.681703999E1
1.065756475E1,2.295222061E1,-9.056317291E0,-3.908971252E0,2.498202094E1
1.066748575E1,2.106374771E1,-8.018375702E0,-2.627785492E0,2.269099101E1
1.067740675E1,1.894984360E1,-7.000342712E0,-1.217118988E0,2.023815083E1
1.068732775E1,1.656200912E1,-5.850134583E0,-4.745132446E-2,1.756492165E1
1.069724875E1,1.401745056E1,-4.694387970E0,8.596623230E-1,1.480760676E1
1.070716975E1,1.149160309E1,-3.600013733E0,1.490899658E0,1.213424172E1
1.071709075E1,9.007818146E0,-2.612367554E0,1.838476868E0,9.557470857E0
1.072701175E1,6.615942078E0,-1.728904724E0,1.975891113E0,7.117861112E0
1.073693275E1,4.452790375E0,-9.376501465E-1,1.933678894E0,4.944253633E0
1.074685375E1,2.755020905E0,-2.143542480E-1,1.895059204E0,3.350721910E0
1.075677475E1,1.658551025E0,3.885919189E-1,1.762285309E0,2.451008913E0
1.076669575E1,8.050259399E-1,9.068142700E-1,1.475781097E0,1.910054641E0
1.077661675E1,-1.721420288E-1,1.340612183E0,1.196162567E0,1.804904094E0
1.078653775E1,-1.069525909E0,1.672322388E0,1.000968475E0,2.223170198E0
1.079645875E1,-1.753902740E0,1.864223328E0,7.770341492E-1,2.674936543E0
1.080637975E1,-2.165995789E0,1.940564575E0,5.292993164E-1,2.955923949E0
1.081630075E1,-2.212998047E0,1.819167023E0,2.486329651E-1,2.875508192E0
1.082622175E1,-1.816472626E0,1.565594330E0,-6.586303711E-2,2.398957345E0
1.083614275E1,-1.373992767E0,1.495839386E0,-3.213816833E-1,2.056374912E0
1.084606375E1,-9.696835327E-1,1.426832886E0,-4.517605591E-1,1.783318771E0
1.085598475E1,-5.493576050E-1,1.310973816E0,-3.749702454E-1,1.470050614E0
1.086590575E1,-1.658551025E-1,1.306483154E0,-9.370513916E-2,1.320297997E0
1.087582675E1,3.751199341E-1,1.319506073E0,3.192860413E-1,1.408458312E0
1.088574775E1,1.040785675E0,1.324745178E0,7.768844604E-1,1.855191115E0
1.089566875E1,1.562301178E0,1.403631134E0,1.193168793E0,2.415495208E0
1.090558975E1,1.893113251E0,1.333576813E0,1.556912384E0,2.790390845E0
1.091551075E1,2.077679443E0,1.136586456E0,1.774559784E0,2.959331524E0
1.092543175E1,2.417472839E0,1.011895752E0,1.827998657E0,3.195260088E0
1.093535275E1,2.921175385E0,8.472381592E-1,1.791025543E0,3.529709708E0
1.094527375E1,3.539240112E0,4.986131287E-1,1.616787872E0,3.922861028E0
1.095519475E1,4.279750214E0,-1.796264648E-3,1.212029572E0,4.448064838E0
1.096511575E1,5.264552307E0,-5.731581116E-1,5.680686951E-1,5.326041988E0
1.097503675E1,6.641089783E0,-1.202000427E0,-8.382568359E-2,6.749511484E0
1.098495775E1,8.401578827E0,-1.819765778E0,-6.414161682E-1,8.620295179E0
1.099487875E1,1.035322037E1,-2.454296265E0,-9.583071899E-1,1.068321556E1
1.100479975E1,1.225142303E1,-3.102149048E0,-1.107397156E0,1.268648980E1
1.101472075E1,1.419019135E1,-3.730542297E0,-9.993218994E-1,1.470636327E1
1.102464175E1,1.589290054E1,-4.325854340E0,-6.665638733E-1,1.648458707E1
1.103456275E1,1.729383728E1,-5.020859070E0,-9.011260986E-2,1.800816354E1
1.104448375E1,1.870450378E1,-5.708079987E0,5.149291992E-1,1.956286766E1
1.105440475E1,2.018956558E1,-6.359076233E0,1.049617310E0,2.119335050E1
1.106432675E1,2.179392929E1,-7.062463531E0,1.347048798E0,2.294925457E1
1.107424775E1,2.340113708E1,-8.014932861E0,1.058598633E0,2.475829147E1
1.108416875E1,2.466720428E1,-8.958869934E0,5.893244934E-1,2.625032611E1
1.109408975E1,2.595527573E1,-9.825118561E0,2.820135498E-1,2.775407762E1
1.110401075E1,2.724948441E1,-1.061787003E1,9.610015869E-2,2.924521840E1
1.111393175E1,2.790586945E1,-1.107322311E1,-9.924362183E-2,3.002271921E1
1.112385275E1,2.770378967E1,-1.118593872E1,-2.471360779E-1,2.987785574E1
1.113377375E1,2.631572617E1,-1.089838669E1,-4.478686523E-1,2.848671379E1
1.114369475E1,2.379601593E1,-1.043090881E1,-4.966671753E-1,2.598655251E1
1.115361575E1,2.071557175E1,-9.816586304E0,-2.017803955E-1,2.292468091E1
1.116353675E1,1.749741394E1,-8.883127441E0,2.023791504E-1,1.962423005E1
1.117345775E1,1.456725723E1,-7.503895569E0,6.363267517E-1,1.639872994E1
1.118337875E1,1.209125610E1,-5.850883026E0,1.048569489E0,1.347333679E1
1.119329975E1,9.924362183E0,-3.986959076E0,1.430275726E0,1.079048173E1
1.120322075E1,7.840246124E0,-2.042053528E0,1.903441772E0,8.322411458E0
1.121314175E1,5.775739288E0,-3.550616455E-1,2.508034515E0,6.306779704E0
1.122306275E1,3.749103699E0,6.981481934E-1,2.964435425E0,4.830224304E0
1.123298375E1,1.990710297E0,1.254990234E0,3.059936829E0,3.860199654E0
1.124290475E1,7.556286621E-1,1.735191650E0,2.631378021E0,3.241298355E0
1.125282575E1,-2.170486450E-2,2.115401001E0,1.777553558E0,2.763166508E0
1.126274675E1,-7.039860535E-1,2.378853149E0,6.954537964E-1,2.576469416E0
1.127266775E1,-1.406624908E0,2.514022064E0,-5.453160095E-1,2.931939652E0
1.128258875E1,-1.836530914E0,2.352058868E0,-1.597777405E0,3.384954853E0
1.129250975E1,-1.850302277E0,2.031874695E0,-2.358794861E0,3.621608273E0
1.130243075E1,-1.494492188E0,1.706601105E0,-3.019969940E0,3.777064028E0
1.131235175E1,-8.903485107E-1,1.434616699E0,-3.249742126E0,3.662194620E0
1.132227275E1,-2.161505127E-1,1.428479462E0,-2.969375153E0,3.302190699E0
1.133219375E1,5.712121582E-1,1.526076508E0,-2.351160736E0,2.860620500E0
1.134211475E1,1.507066040E0,1.463207245E0,-1.588796082E0,2.633722931E0
1.135203575E1,2.378703461E0,1.373094635E0,-6.402186584E-1,2.820194845E0
1.136195675E1,2.735112305E0,1.219364319E0,2.936892700E-1,3.008976911E0
1.137187775E1,2.521656189E0,8.442443848E-1,1.020577698E0,2.848346424E0
1.138179875E1,1.944456482E0,3.962260437E-1,1.627715149E0,2.566585805E0
1.139171975E1,1.393751678E0,1.907034302E-1,2.088606720E0,2.518171871E0
1.140164012E1,1.180594940E0,1.856140137E-1,2.374512177E0,2.658301159E0
1.141156112E1,1.320703583E0,1.809736633E-1,2.525248718E0,2.855501796E0
1.142148212E1,1.813628540E0,1.728904724E-1,2.432890778E0,3.039423816E0
1.143140312E1,2.714754639E0,6.750961304E-2,2.016905823E0,3.382655672E0
1.144132412E1,3.828588409E0,-2.207908630E-1,1.199306030E0,4.018105619E0
1.145124512E1,4.978946228E0,-7.813751221E-1,1.210981750E-1,5.041340833E0
1.146116612E1,6.241420898E0,-1.592089233E0,-9.877958679E-1,6.516580671E0
1.147108712E1,7.620802460E0,-2.430196381E0,-2.021097107E0,8.250292001E0
1.148100813E1,9.202114105E0,-3.300336914E0,-2.750380554E0,1.015557585E1
1.149092912E1,1.072534653E1,-3.999383240E0,-3.005001068E0,1.183461684E1
1.150085012E1,1.210113556E1,-4.531975708E0,-2.700085144E0,1.320101305E1
1.151077112E1,1.382315460E1,-5.245092773E0,-2.152374115E0,1.494065981E1
1.152069212E1,1.581566116E1,-6.394103394E0,-1.710043945E0,1.714479357E1
1.153061312E1,1.784394333E1,-7.973918152E0,-1.301992493E0,1.958787555E1
1.154053412E1,1.960128891E1,-9.302854614E0,-7.705975342E-1,2.171053780E1
1.155045512E1,2.122586060E1,-9.930200043E0,-1.303788757E-1,2.343422774E1
1.156037712E1,2.244941620E1,-1.016491196E1,6.123765564E-1,2.465109993E1
1.157029812E1,2.385424484E1,-1.089329727E1,1.106648712E0,2.624716354E1
1.158021912E1,2.565844299E1,-1.202988373E1,1.494043121E0,2.837791332E1
1.159014012E1,2.722523483E1,-1.257669662E1,1.626517639E0,3.003385206E1
1.160006113E1,2.836990448E1,-1.257519974E1,1.341510315E0,3.106101702E1
1.160998212E1,2.859144379E1,-1.194231583E1,9.876461792E-1,3.100104853E1
1.161990312E1,2.733750137E1,-1.062535446E1,9.256750488E-1,2.934440344E1
1.162982412E1,2.476809448E1,-9.028325500E0,1.319057007E0,2.639524724E1
1.163974512E1,2.141836029E1,-7.845634918E0,1.739233246E0,2.287629946E1
1.164966612E1,1.783481232E1,-6.924600220E0,2.118843842E0,1.924889913E1
1.165958712E1,1.433613785E1,-5.821993103E0,2.467768250E0,1.566876933E1
1.166950812E1,1.142454254E1,-4.653373260E0,2.578837280E0,1.260255755E1
1.167942912E1,9.174571381E0,-3.388204193E0,2.442321167E0,1.008055655E1
1.168935012E1,7.490573273E0,-1.822909241E0,2.124681702E0,7.996621686E0
1.169927112E1,6.134094086E0,-2.694396973E-1,1.566043396E0,6.336576356E0
1.170919213E1,4.938230896E0,9.834548950E-1,1.029259644E0,5.139327128E0
1.171911313E1,3.818559265E0,1.991009674E0,7.126679993E-1,4.365021198E0
1.172903412E1,2.786455536E0,2.702330475E0,6.676116943E-1,3.938607600E0
1.173895512E1,1.717378693E0,2.932102661E0,6.517446899E-1,3.459969181E0
1.174887612E1,4.426295471E-1,2.735860748E0,4.987628174E-1,2.815957972E0
1.175879712E1,-7.764353943E-1,2.356399841E0,2.671943665E-1,2.495368703E0
1.176871812E1,-1.687590637E0,2.020198975E0,-8.786727905E-2,2.633797015E0
1.177863912E1,-2.143841858E0,1.795965271E0,-6.426136780E-1,2.869582113E0
1.178856012E1,-2.106868744E0,1.710642700E0,-1.168470154E0,2.954744803E0
1.179848112E1,-1.622476044E0,1.768272858E0,-1.374890900E0,2.765780613E0
1.180840212E1,-1.037791901E0,1.820065155E0,-1.306782532E0,2.469277178E0
1.181832312E1,-3.989204407E-1,1.725162506E0,-1.085093536E0,2.076716440E0
1.182824413E1,2.216889954E-1,1.535806274E0,-7.599696350E-1,1.727831233E0
1.183816512E1,7.030879211E-1,1.295705566E0,-3.245251465E-1,1.509470805E0
1.184808612E1,8.864566040E-1,1.084943848E0,2.300715637E-1,1.419803292E0
1.185800712E1,1.077010345E0,9.139993286E-1,7.608677673E-1,1.604451874E0
1.186792812E1,1.366059265E0,7.134164429E-1,1.266366577E0,1.994684247E0
1.187784912E1,1.648671570E0,5.514532471E-1,1.739532623E0,2.459307296E0
1.188777012E1,1.865420837E0,4.445755005E-1,2.075284424E0,2.825641116E0
1.189769112E1,2.385589142E0,2.971321106E-1,2.137405243E0,3.216803416E0
1.190761212E1,2.935844879E0,1.252894592E-1,2.077978821E0,3.599010778E0
1.191753312E1,3.535797272E0,-1.598675537E-1,1.844763794E0,3.991312245E0
1.192745412E1,4.360282745E0,-5.906716919E-1,1.361418915E0,4.605911433E0
1.193737513E1,5.638774109E0,-1.168769531E0,6.920109558E-1,5.800058175E0
1.194729612E1,7.375911713E0,-1.803898773E0,-5.493576050E-2,7.593493420E0
1.195721712E1,9.128467255E0,-2.419718170E0,-6.489006042E-1,9.465992945E0
1.196713812E1,1.062924637E1,-2.862647095E0,-9.785151672E-1,1.105138537E1
1.197705912E1,1.222223373E1,-3.424428864E0,-1.167721710E0,1.274650087E1
1.198698012E1,1.366493362E1,-4.331841888E0,-1.362317047E0,1.439969350E1
1.199690112E1,1.511631546E1,-5.406457214E0,-1.500779114E0,1.612405379E1
1.200682212E1,1.648911072E1,-6.168372803E0,-1.353784790E0,1.765707588E1
1.201674312E1,1.759501099E1,-6.465654602E0,-8.101153564E-1,1.876287259E1
1.202666412E1,1.869956406E1,-6.687343597E0,4.730163574E-2,1.985941836E1
1.203658512E1,1.978600479E1,-7.003785553E0,9.015751648E-1,2.100837536E1
1.204650612E1,2.083397552E1,-7.435787201E0,1.611399078E0,2.217976723E1
1.205642713E1,2.194047455E1,-7.977510681E0,1.863624573E0,2.342003836E1
1.206634812E1,2.301658676E1,-8.514294434E0,1.858235779E0,2.461116649E1
1.207626912E1,2.399585037E1,-8.816216583E0,1.680555267E0,2.561934378E1
1.208619112E1,2.505594589E1,-9.372908936E0,1.149459686E0,2.677635345E1
1.209611212E1,2.595362915E1,-9.936486969E0,5.704637146E-1,2.779658375E1
1.210603312E1,2.611319733E1,-9.981842651E0,1.140628052E-1,2.795620267E1
1.211595412E1,2.539319458E1,-9.499545593E0,1.697470093E-1,2.711244201E1
1.212587512E1,2.358480515E1,-8.871900787E0,6.617738342E-1,2.520697526E1
1.213579612E1,2.078158447E1,-8.276439056E0,1.237027588E0,2.240321258E1
1.214571712E1,1.781460434E1,-7.488477631E0,1.672472076E0,1.939676746E1
1.215563812E1,1.470332428E1,-6.448141022E0,1.819915466E0,1.615791941E1
1.216555912E1,1.181882263E1,-5.264103241E0,1.653162231E0,1.304332384E1
1.217548013E1,9.311985626E0,-3.930227051E0,1.379830627E0,1.020116138E1
1.218540112E1,7.086114349E0,-2.519261169E0,1.199605408E0,7.615690812E0
1.219532212E1,5.109175415E0,-1.239123230E0,1.161434784E0,5.384053358E0
1.220524312E1,3.470832367E0,-1.556762695E-1,1.134640503E0,3.654903759E0
1.221516412E1,2.180814972E0,6.004014587E-1,9.114546204E-1,2.438685174E0
1.222508512E1,9.761201477E-1,1.158740387E0,3.814068604E-1,1.562357520E0
1.223500612E1,-1.880090332E-1,1.635349274E0,-1.779798889E-1,1.655714796E0
1.224492712E1,-1.307381287E0,2.044149170E0,-7.637118530E-1,2.543825358E0
1.225484812E1,-2.098935242E0,2.287543030E0,-1.288520508E0,3.361349039E0
1.226476912E1,-2.300565948E0,2.182461548E0,-1.727557526E0,3.611121307E0
1.227469012E1,-1.930086365E0,1.951042786E0,-1.976340179E0,3.381970111E0
1.228461113E1,-1.381177826E0,1.787882080E0,-2.000589752E0,3.017703411E0
1.229453213E1,-7.897576904E-1,1.643731842E0,-1.830842743E0,2.584096888E0
1.230445312E1,-3.674858093E-1,1.521885223E0,-1.323996735E0,2.050401865E0
1.231437412E1,-1.401086426E-1,1.398990784E0,-6.129753113E-1,1.533800631E0
1.232429512E1,4.670288086E-2,1.302890625E0,1.808239746E-1,1.316207601E0
1.233421612E1,3.074606323E-1,1.271006927E0,9.806108093E-1,1.634499376E0
1.234413712E1,5.953120422E-1,1.278641052E0,1.770817566E0,2.263871511E0
1.235405812E1,7.662565613E-1,1.308429108E0,2.396666107E0,2.836043772E0
1.236397912E1,8.247848511E-1,1.361269226E0,2.828368378E0,3.245457077E0
1.237390012E1,8.560697937E-1,1.406175842E0,2.867886200E0,3.306804688E0
1.238382112E1,8.635542297E-1,1.409768372E0,2.472707977E0,2.974467601E0
1.239374212E1,1.058898010E0,1.452579346E0,1.796863403E0,2.541647073E0
1.240366363E1,1.854792938E0,1.403481445E0,1.006806335E0,2.534497190E0
1.241358462E1,3.065625000E0,1.191671906E0,2.083666992E-1,3.295687372E0
1.242350562E1,4.590054932E0,7.090754700E-1,-6.062393188E-1,4.683899915E0
1.243342662E1,6.687044220E0,-1.541793823E-1,-1.520987091E0,6.859572393E0
1.244334762E1,9.323811035E0,-1.167272644E0,-2.299967194E0,9.673976780E0
1.245326862E1,1.194276489E1,-1.942211151E0,-2.705623627E0,1.239847638E1
1.246318962E1,1.399739227E1,-2.295326843E0,-2.721790009E0,1.444311797E1
1.247311062E1,1.568677917E1,-2.797682190E0,-2.025438080E0,1.606251742E1
1.248303162E1,1.704325836E1,-3.678001556E0,-7.653584290E-1,1.745239595E1
1.249295262E1,1.853924744E1,-4.727768555E0,6.185137939E-1,1.914257168E1
1.250287362E1,2.000799316E1,-6.030659180E0,1.838027802E0,2.097777364E1
1.251279462E1,2.086196732E1,-7.205116882E0,2.927162933E0,2.226440371E1
1.252271563E1,2.097752701E1,-7.875123596E0,3.705843658E0,2.271139556E1
1.253263662E1,2.101539825E1,-8.282725983E0,4.106260986E0,2.295891750E1
1.254255762E1,2.170321793E1,-8.638685760E0,3.980073395E0,2.369593940E1
1.255247862E1,2.300176758E1,-8.926836548E0,3.373834076E0,2.490286086E1
1.256239962E1,2.449146973E1,-9.128916321E0,2.471211090E0,2.625406800E1
1.257232062E1,2.594779129E1,-9.276359711E0,1.455273743E0,2.759450206E1
1.258224162E1,2.666001022E1,-9.186396790E0,6.441105652E-1,2.820568931E1
1.259216262E1,2.589150833E1,-8.931476898E0,-9.325607300E-2,2.738886964E1
1.260208362E1,2.366878052E1,-8.500523071E0,-5.381309509E-1,2.515471424E1
1.261200462E1,2.046394501E1,-7.816744995E0,-3.897894287E-1,2.190950669E1
1.262192662E1,1.697964066E1,-7.167095947E0,3.978726196E-1,1.843458065E1
1.263184762E1,1.382495087E1,-6.412515106E0,1.594633942E0,1.532293947E1
1.264176863E1,1.113010483E1,-5.641468506E0,2.714006195E0,1.276993461E1
1.265168962E1,9.140891418E0,-4.851112061E0,3.428919525E0,1.090168213E1
1.266161062E1,7.756270752E0,-3.787573700E0,3.885170746E0,9.465727771E0
1.267153162E1,6.706354065E0,-2.503992920E0,4.010011139E0,8.205202906E0
1.268145262E1,5.944438477E0,-1.371298370E0,3.783532104E0,7.178573898E0
1.269137362E1,5.205425262E0,-4.276606750E-1,3.416645050E0,6.241218568E0
1.270129462E1,4.223467255E0,3.481759644E-1,3.000211029E0,5.192318208E0
1.271121562E1,3.052153015E0,8.110134888E-1,2.569107513E0,4.071080240E0
1.272113662E1,1.958976288E0,1.130898285E0,2.149530029E0,3.120416378E0
1.273105762E1,9.294172668E-1,1.527573395E0,1.683698730E0,2.456041194E0
1.274097862E1,9.355545044E-2,1.870360565E0,1.161135406E0,2.203460165E0
1.275089963E1,-5.734574890E-1,2.196981354E0,6.372248840E-1,2.358312132E0
1.276082063E1,-1.200353851E0,2.505489807E0,-3.727249146E-2,2.778438011E0
1.277074162E1,-1.596879272E0,2.466870117E0,-8.881031799E-1,3.069885803E0
1.278066262E1,-1.712738342E0,2.235002289E0,-1.697320404E0,3.287796285E0
1.279058362E1,-1.571132813E0,2.116448822E0,-2.230661316E0,3.453065861E0
1.280050462E1,-1.239123230E0,2.000440063E0,-2.453996887E0,3.399895226E0
1.281042562E1,-8.360115051E-1,1.758243713E0,-2.311792603E0,3.022370134E0
1.282034662E1,-5.301974487E-1,1.450783081E0,-1.732048187E0,2.320748113E0
1.283026762E1,-1.026864624E-1,1.234632568E0,-9.398954773E-1,1.555077360E0
1.284018862E1,3.463796997E-1,9.867480469E-1,-1.901046753E-1,1.062915985E0
1.285010962E1,8.370593262E-1,8.632548523E-1,5.902226257E-1,1.339492442E0
1.286003062E1,1.476978607E0,8.252339172E-1,1.246607666E0,2.101548833E0
1.286995163E1,2.246678009E0,6.673123169E-1,1.734592896E0,2.915764105E0
1.287987262E1,3.198099518E0,6.276448059E-1,2.008523254E0,3.828308268E0
1.288979362E1,4.318968658E0,5.390290833E-1,1.857786713E0,4.732379327E0
1.289971462E1,5.785469055E0,3.966751099E-2,1.147663422E0,5.898335107E0
1.290963562E1,7.387587433E0,-6.795867920E-1,3.025209045E-1,7.424944793E0
1.291955662E1,9.098379822E0,-1.256936188E0,-4.742138672E-1,9.197025756E0
1.292947762E1,1.119971008E1,-1.682052155E0,-9.686357117E-1,1.136666444E1
1.293939862E1,1.288610321E1,-2.008373566E0,-1.246008911E0,1.310105944E1
1.294931962E1,1.415920578E1,-2.481689301E0,-1.324595490E0,1.443594276E1
1.295924062E1,1.582554062E1,-3.288661194E0,-1.118923187E0,1.620231519E1
1.296916162E1,1.795650925E1,-4.294270020E0,-6.300398254E-1,1.847360088E1
1.297908263E1,1.988973907E1,-5.431006165E0,-7.259902954E-2,2.061802171E1
1.298900362E1,2.135189850E1,-6.469546509E0,6.283932495E-1,2.231935213E1
1.299892462E1,2.227143631E1,-7.201075287E0,1.355281677E0,2.344587702E1
1.300884562E1,2.251872208E1,-7.811954956E0,1.953138428E0,2.391514654E1
1.301876662E1,2.239612701E1,-8.500672760E0,2.607427826E0,2.409661019E1
1.302868762E1,2.241319153E1,-8.961115265E0,3.123704224E0,2.433947964E1
1.303860862E1,2.296509384E1,-9.187145233E0,3.358266449E0,2.496151290E1
1.304852962E1,2.380065628E1,-9.559870148E0,3.423530731E0,2.587630034E1
1.305845062E1,2.394226181E1,-9.709109802E0,3.592229919E0,2.608453238E1
1.306837162E1,2.343047607E1,-9.519603882E0,3.774251404E0,2.557058937E1
1.307829262E1,2.243324982E1,-9.078620911E0,4.138294373E0,2.455193547E1
1.308821362E1,2.080358871E1,-8.167166290E0,4.553680573E0,2.280850533E1
1.309813463E1,1.873968063E1,-7.215744781E0,4.707111511E0,2.062521519E1
1.310805562E1,1.615395767E1,-6.507417755E0,4.437971191E0,1.797198995E1
1.311797662E1,1.322140594E1,-5.701942749E0,3.867507477E0,1.490890138E1
1.312789762E1,1.043165726E1,-4.802014160E0,3.249293060E0,1.193468552E1
1.313781862E1,8.001161499E0,-3.992198181E0,2.674787750E0,9.333312443E0
1.314773962E1,5.858966217E0,-3.147355042E0,2.276915131E0,7.029770366E0
1.315766162E1,4.033362579E0,-2.159559174E0,1.893712006E0,4.951550735E0
1.316758262E1,2.789598999E0,-1.200353851E0,1.439406738E0,3.360744516E0
1.317750362E1,1.828447723E0,-3.508703613E-1,9.171427917E-1,2.075447419E0
1.318742462E1,7.195536804E-1,3.617976379E-1,3.180885315E-1,8.659303342E-1
1.319734562E1,-5.273533630E-1,7.328759766E-1,-3.245251465E-1,9.594401165E-1
1.320726662E1,-1.667831726E0,9.765692139E-1,-1.083446960E0,2.215673128E0
1.321718763E1,-2.420466614E0,1.228195953E0,-1.733694763E0,3.220686489E0
1.322710862E1,-2.593955841E0,1.236428833E0,-2.361489258E0,3.719407840E0
1.323702962E1,-2.391427002E0,1.037043457E0,-2.825524292E0,3.844212502E0
1.324695062E1,-2.035317535E0,7.542814636E-1,-3.061583405E0,3.752965619E0
1.325687162E1,-1.799557800E0,3.336561584E-1,-3.248694305E0,3.728773176E0
1.326679262E1,-1.584604797E0,-1.166075134E-1,-3.300785980E0,3.663298754E0
1.327671362E1,-1.177152100E0,-4.833448792E-1,-3.070115662E0,3.323389763E0
1.328663462E1,-7.592211914E-1,-7.732919312E-1,-2.730921021E0,2.938082172E0
1.329655562E1,-2.838098145E-1,-8.690927124E-1,-2.160606995E0,2.346080292E0
1.330647662E1,1.787283325E-1,-9.276210022E-1,-1.296304321E0,1.604004188E0
1.331639762E1,4.122427368E-1,-1.008752289E0,-2.659968567E-1,1.121730619E0
1.332631863E1,3.984713745E-1,-1.076261902E0,6.731501770E-1,1.330507527E0
1.333623963E1,4.002676392E-1,-1.136436768E0,1.532962189E0,1.949788651E0
1.334616062E1,6.727011108E-1,-1.045575714E0,2.250719604E0,2.571282578E0
1.335608162E1,1.203197937E0,-7.640112305E-1,2.768941956E0,3.114231525E0
1.336600262E1,1.886227570E0,-6.222560120E-1,2.928959198E0,3.538906466E0
1.337592362E1,2.461181946E0,-6.390211487E-1,2.813100128E0,3.792004342E0
1.338584462E1,2.975961456E0,-7.381150818E-1,2.364483032E0,3.871942726E0
1.339576562E1,3.850592651E0,-1.141077118E0,1.754351807E0,4.382564434E0
1.340568637E1,5.158273315E0,-1.858235779E0,1.073567505E0,5.586892785E0
1.341560737E1,7.144043884E0,-2.883453827E0,4.733157349E-1,7.718529444E0
1.342552837E1,9.634864197E0,-4.140390015E0,-4.161346436E-1,1.049507530E1
1.343544937E1,1.227118195E1,-5.362897797E0,-1.493144989E0,1.347486776E1
1.344537037E1,1.478804810E1,-6.335874481E0,-2.479893036E0,1.627819220E1
1.345529137E1,1.698892136E1,-7.420219574E0,-2.988834686E0,1.877807871E1
1.346521237E1,1.891302017E1,-8.909173279E0,-3.134332123E0,2.114000327E1
1.347513337E1,2.086810455E1,-1.052251831E1,-2.727627869E0,2.352957996E1
1.348505437E1,2.237921219E1,-1.179352524E1,-1.894011383E0,2.536737383E1
1.349497538E1,2.342269226E1,-1.255289612E1,-1.107995911E0,2.659746921E1
1.350489638E1,2.419388855E1,-1.351569397E1,-3.685336304E-1,2.771559207E1
1.351481737E1,2.453188568E1,-1.440304871E1,5.909710693E-1,2.845365484E1
1.352473837E1,2.482422775E1,-1.463806000E1,1.738185425E0,2.887102999E1
1.353465937E1,2.518857010E1,-1.440993439E1,2.774330750E0,2.915145252E1
1.354458037E1,2.569661362E1,-1.405038208E1,3.418141937E0,2.948580815E1
1.355450137E1,2.594270187E1,-1.339085358E1,3.730691986E0,2.943224087E1
1.356442237E1,2.519515640E1,-1.234408035E1,3.696413269E0,2.829904057E1
1.357434337E1,2.336925339E1,-1.097382980E1,3.208428040E0,2.601616718E1
1.358426437E1,2.092154343E1,-9.396559753E0,2.563119965E0,2.307760600E1
1.359418537E1,1.831636093E1,-7.908504181E0,2.048490143E0,2.005566823E1
1.360410637E1,1.589394836E1,-6.483617249E0,1.727707214E0,1.725224216E1
1.361402738E1,1.362092514E1,-4.893324280E0,1.472487946E0,1.454793611E1
1.362394837E1,1.146840134E1,-3.212469635E0,1.289568329E0,1.197944810E1
1.363386937E1,9.285640411E0,-1.611698456E0,1.297052765E0,9.513308343E0
1.364379037E1,7.360044708E0,-1.462458801E-1,1.424886932E0,7.498129682E0
1.365371137E1,5.805826721E0,1.058149567E0,1.520687714E0,6.094242820E0
1.366363237E1,4.441414032E0,1.973196716E0,1.491947479E0,5.083853968E0
1.367355337E1,3.190315704E0,2.531086578E0,1.304686890E0,4.276297632E0
1.368347437E1,1.870061188E0,2.782413940E0,9.310638428E-1,3.479344200E0
1.369339537E1,3.716770935E-1,2.859803009E0,4.959187317E-1,2.926183949E0
1.370331637E1,-1.074016571E0,2.851420441E0,1.181044006E-1,3.049271843E0
1.371323737E1,-2.126328278E0,2.736160126E0,-3.414399719E-1,3.482014565E0
1.372315937E1,-2.627037048E0,2.458637238E0,-7.761360168E-1,3.680843359E0
1.373308038E1,-2.640958099E0,2.161804504E0,-1.213825836E0,3.622351661E0
1.374300137E1,-2.108964386E0,1.906734924E0,-1.784289551E0,3.356643868E0
1.375292237E1,-1.167272644E0,1.721569977E0,-2.150877228E0,2.992089815E0
1.376284337E1,-3.827540588E-1,1.419049072E0,-2.137255554E0,2.593850852E0
1.377276437E1,8.098159790E-2,9.166937256E-1,-1.951342163E0,2.157457217E0
1.378268537E1,3.058140564E-1,4.279600525E-1,-1.559457092E0,1.645775947E0
1.379260637E1,5.867797852E-1,2.267784119E-1,-1.114432526E0,1.279726072E0
1.380252737E1,8.972341919E-1,1.525328064E-1,-7.222480774E-1,1.161868210E0
1.381244837E1,1.017284546E0,1.395098877E-1,-4.685256958E-1,1.128648388E0
1.382236937E1,1.222807159E0,7.768844604E-2,-1.986369324E-1,1.241269300E0
1.383229037E1,1.561403046E0,2.260299683E-2,2.703378296E-1,1.584794280E0
1.384221137E1,1.823807373E0,1.447489929E-1,8.430468750E-1,2.014436308E0
1.385213238E1,1.824256439E0,1.522334290E-1,1.199755096E0,2.188720828E0
1.386205337E1,1.440454559E0,-5.538482666E-2,9.485774231E-1,1.725623349E0
1.387197437E1,1.478475494E0,-5.099894714E-1,3.516188049E-1,1.603001819E0
1.388189537E1,1.887574768E0,-1.024020538E0,-2.189945984E-1,2.158591022E0
1.389181637E1,2.362237701E0,-1.460662537E0,-4.743635559E-1,2.817573919E0
1.390173737E1,3.171754303E0,-1.992057495E0,-8.346643066E-1,3.837314546E0
1.391165837E1,4.870421906E0,-2.818788300E0,-1.216370544E0,5.757267956E0
1.392157937E1,7.526049500E0,-4.057612152E0,-1.628613281E0,8.703908241E0
1.393150037E1,1.097248260E1,-5.838608551E0,-2.142794037E0,1.261254497E1
1.394142137E1,1.416594177E1,-7.874375153E0,-2.904559937E0,1.646560533E1
1.395134237E1,1.661634613E1,-9.776769104E0,-3.523223419E0,1.959850188E1
1.396126338E1,1.906645111E1,-1.178888489E1,-3.540737000E0,2.269458489E1
1.397118437E1,2.112886230E1,-1.325224182E1,-3.130739594E0,2.513667174E1
1.398110537E1,2.259820679E1,-1.406535095E1,-2.174528046E0,2.670658383E1
1.399102637E1,2.341026810E1,-1.500345016E1,-8.897497559E-1,2.781970208E1
1.400094737E1,2.341371094E1,-1.607671829E1,4.849914551E-1,2.840594916E1
1.401086837E1,2.312556015E1,-1.671603882E1,1.738933868E0,2.858743390E1
1.402078937E1,2.324052109E1,-1.686183563E1,3.026107178E0,2.887214308E1
1.403071037E1,2.357133316E1,-1.678998505E1,3.833677826E0,2.919260918E1
1.404063137E1,2.374482239E1,-1.668774765E1,4.041745148E0,2.930244385E1
1.405055237E1,2.345337845E1,-1.603226074E1,3.915557556E0,2.867796953E1
1.406047337E1,2.266496796E1,-1.465856735E1,3.550017700E0,2.722456602E1
1.407039437E1,2.149859344E1,-1.273776169E1,2.913840637E0,2.515811122E1
1.408031538E1,1.979902771E1,-1.063732956E1,2.254461823E0,2.258842351E1
1.409023637E1,1.762674500E1,-8.637039185E0,1.975292358E0,1.972821241E1
1.410015737E1,1.533665726E1,-6.816974030E0,2.090552673E0,1.691314877E1
1.411007837E1,1.320015015E1,-5.282964020E0,2.401456146E0,1.441945437E1
1.411999937E1,1.111678253E1,-3.786675568E0,2.737357635E0,1.205880975E1
1.412992037E1,9.111552429E0,-2.210752716E0,2.931952972E0,9.823653265E0
1.413984137E1,7.261848907E0,-7.084767151E-1,2.995720367E0,7.887377849E0
1.414976237E1,5.512436829E0,4.809498596E-1,2.845283203E0,6.222050230E0
1.415968337E1,3.883823547E0,1.472637634E0,2.655926971E0,4.930182048E0
1.416960437E1,2.469414825E0,2.374512177E0,2.471211090E0,4.224121436E0
1.417952537E1,1.174457703E0,3.065924377E0,2.092199249E0,3.893140234E0
1.418944638E1,3.143463135E-2,3.377127228E0,1.358125763E0,3.640121157E0
1.419936737E1,-9.391470337E-1,3.422033844E0,4.704716492E-1,3.579616789E0
1.420928837E1,-1.400637360E0,3.318000183E0,-2.008822632E-1,3.607112961E0
1.421920937E1,-1.480122070E0,3.065026245E0,-7.369175720E-1,3.482555776E0
1.422913037E1,-1.261875916E0,2.809507599E0,-1.237476654E0,3.319188492E0
1.423905137E1,-8.922944641E-1,2.586920471E0,-1.665736084E0,3.203595423E0
1.424897237E1,-1.386117554E-1,2.408192139E0,-1.962269440E0,3.109518283E0
1.425889337E1,6.644682312E-1,2.271226959E0,-2.225122833E0,3.248255155E0
1.426881437E1,1.222807159E0,2.174827423E0,-2.346969452E0,3.425404688E0
1.427873537E1,1.813329163E0,2.065404968E0,-2.241139526E0,3.546373741E0
1.428865637E1,2.216141510E0,1.837728424E0,-1.942360840E0,3.472937458E0
1.429857738E1,2.377955017E0,1.475032654E0,-1.472487946E0,3.162058213E0
1.430849838E1,2.198927307E0,1.216819611E0,-1.075363770E0,2.733557847E0
1.431841937E1,2.075134735E0,8.813671875E-1,-5.860313416E-1,2.329468828E0
1.432834137E1,1.850751343E0,6.646179199E-1,-1.212478638E-1,1.970202669E0
1.433826237E1,1.700463867E0,5.727090454E-1,1.996847534E-1,1.805393867E0
1.434818337E1,1.704804840E0,4.712200928E-1,3.715274048E-1,1.807329669E0
1.435810437E1,1.839973755E0,3.544628906E-1,4.231700134E-1,1.920994591E0
1.436802537E1,2.198627930E0,1.089733887E-1,3.930825806E-1,2.236147108E0
1.437794637E1,2.838397522E0,-3.531156921E-1,1.655557251E-1,2.865065424E0
1.438786737E1,3.800895996E0,-1.158590698E0,-3.058140564E-1,3.985306138E0
1.439778837E1,5.017266541E0,-2.245630188E0,-9.084608459E-1,5.571455787E0
1.440770987E1,6.478976898E0,-3.357218628E0,-1.685045929E0,7.489154715E0
1.441763087E1,8.343349915E0,-4.664450226E0,-2.354902954E0,9.844498546E0
1.442755188E1,1.049287994E1,-6.010750580E0,-2.423460388E0,1.233299689E1
1.443747287E1,1.268821472E1,-7.443271637E0,-1.965861969E0,1.484108146E1
1.444739387E1,1.506048157E1,-8.949289856E0,-8.815168762E-1,1.754095111E1
1.445731487E1,1.732631973E1,-1.006746460E1,6.523434448E-1,2.004945762E1
1.446723587E1,1.912917068E1,-1.104044128E1,1.856140137E0,2.216442580E1
1.447715687E1,2.045226929E1,-1.199710190E1,2.434687042E0,2.383597017E1
1.448707787E1,2.166459824E1,-1.296798294E1,2.339035950E0,2.535733597E1
1.449699887E1,2.300910233E1,-1.393661865E1,1.720821533E0,2.695569246E1
1.450691987E1,2.461541199E1,-1.479164063E1,1.132844238E0,2.874011962E1
1.451684087E1,2.615301453E1,-1.564351913E1,9.309141541E-1,3.048879238E1
1.452676187E1,2.725397507E1,-1.635828278E1,1.256187744E0,3.181117068E1
1.453668287E1,2.729678604E1,-1.669089111E1,1.901046753E0,3.205174493E1
1.454660388E1,2.597263962E1,-1.639824966E1,2.675835571E0,3.083246174E1
1.455652487E1,2.363420242E1,-1.535057831E1,3.284320221E0,2.837256664E1
1.456644587E1,2.066482727E1,-1.362511642E1,3.536096649E0,2.500365700E1
1.457636687E1,1.769036270E1,-1.188049438E1,3.364253998E0,2.157343932E1
1.458628787E1,1.492067230E1,-1.022852966E1,2.962339783E0,1.833097755E1
1.459620887E1,1.233944000E1,-8.517437897E0,2.571652222E0,1.521255807E1
1.460612987E1,1.010353958E1,-7.015760651E0,2.215393066E0,1.249841494E1
1.461605087E1,8.129145355E0,-5.490582275E0,1.979633331E0,1.000741955E1
1.462597187E1,6.382128296E0,-3.884122925E0,1.858385468E0,7.698803090E0
1.463589287E1,4.849914551E0,-2.352507935E0,1.770368500E0,5.673638106E0
1.464581387E1,3.517535248E0,-8.984317017E-1,1.624871063E0,3.977491636E0
1.465573488E1,2.413131866E0,3.835025024E-1,1.428030396E0,2.830114907E0
1.466565587E1,1.516047363E0,1.378633118E0,1.096469879E0,2.324064344E0
1.467557687E1,7.316784668E-1,2.120640106E0,6.309379578E-1,2.330354167E0
1.468549787E1,1.468446350E-1,2.561323700E0,9.340576172E-2,2.567229456E0
1.469541887E1,-2.694396973E-1,2.710862732E0,-5.096900940E-1,2.771490302E0
1.470533987E1,-5.412744141E-1,2.753224640E0,-9.545649719E-1,2.963851918E0
1.471526087E1,-6.071374512E-1,2.665357361E0,-1.214125214E0,2.991127844E0
1.472518187E1,-4.893324280E-1,2.463277588E0,-1.288520508E0,2.822670331E0
1.473510287E1,-3.013233948E-1,2.312091980E0,-1.269959106E0,2.655063322E0
1.474502387E1,-1.239422607E-1,2.153272247E0,-1.214424591E0,2.475231331E0
1.475494487E1,-5.254074097E-2,1.934577026E0,-1.199605408E0,2.276928180E0
1.476486588E1,2.155517578E-2,1.635349274E0,-1.133293304E0,1.989770235E0
1.477478688E1,2.426454163E-1,1.361867981E0,-8.643026733E-1,1.631128538E0
1.478470787E1,5.700146484E-1,1.198108521E0,-4.825964355E-1,1.411835701E0
1.479462887E1,9.086105347E-1,1.094074860E0,-1.297801208E-1,1.428081154E0
1.480454987E1,1.150806885E0,1.020278320E0,2.392025757E-1,1.556451801E0
1.481447087E1,1.274749146E0,1.019080811E0,6.762936401E-1,1.766602437E0
1.482439187E1,1.402134247E0,9.798623657E-1,1.151106262E0,2.061833245E0
1.483431287E1,1.489253082E0,8.339158630E-1,1.685345306E0,2.398682808E0
1.484423387E1,1.576371918E0,6.722520447E-1,2.174977112E0,2.769006441E0
1.485415487E1,1.592987366E0,5.028044128E-1,2.409389648E0,2.931821874E0
1.486407587E1,1.571881256E0,3.189866638E-1,2.294428711E0,2.799458213E0
1.487399687E1,1.782493286E0,1.113684082E-1,1.776056671E0,2.518742253E0
1.488391788E1,2.697091370E0,-3.385958862E-1,8.506809998E-1,2.848263891E0
1.489383887E1,4.054319000E0,-1.371298370E0,1.398092651E-1,4.282231709E0
1.490375987E1,5.882018280E0,-3.068768463E0,-5.927673340E-1,6.660844694E0
1.491368087E1,8.408464508E0,-5.113815765E0,-1.062789917E0,9.898631697E0
1.492360187E1,1.115959351E1,-7.057374115E0,-7.741900635E-1,1.322658032E1
1.493352287E1,1.413480652E1,-8.584498444E0,3.243754578E-1,1.654060423E1
1.494344387E1,1.660766418E1,-9.574988708E0,1.755848694E0,1.925040060E1
1.495336487E1,1.817520447E1,-9.796078949E0,2.726430359E0,2.082629690E1
1.496328587E1,1.915192337E1,-9.643396454E0,3.088227997E0,2.166398892E1
1.497320787E1,1.965263214E1,-9.795929260E0,2.905907135E0,2.215018005E1
1.498312887E1,2.040242294E1,-1.084300186E1,2.195035400E0,2.320878566E1
1.499304987E1,2.158720917E1,-1.271725433E1,1.544937286E0,2.510225067E1
1.500297088E1,2.287797501E1,-1.443059143E1,1.323098602E0,2.708125365E1
1.501289187E1,2.429897003E1,-1.567061279E1,1.410965881E0,2.894821021E1
1.502281287E1,2.562536179E1,-1.655003403E1,1.563498688E0,3.054516854E1
1.503273387E1,2.657992676E1,-1.711181580E1,1.717678070E0,3.165844539E1
1.504265487E1,2.674757812E1,-1.699206482E1,2.009870453E0,3.175220908E1
1.505257587E1,2.570260117E1,-1.560684540E1,2.515818329E0,3.017493450E1
1.506249687E1,2.362207764E1,-1.331286575E1,3.041674805E0,2.728528417E1
1.507241787E1,2.108425507E1,-1.117980148E1,3.353626099E0,2.409938964E1
1.508233887E1,1.829630264E1,-9.546996918E0,3.360212402E0,2.090910969E1
1.509225987E1,1.541674072E1,-8.295000458E0,3.216810608E0,1.779974150E1
1.510218087E1,1.264764908E1,-7.182663574E0,3.037034454E0,1.485857535E1
1.511210187E1,1.005204666E1,-6.006110229E0,2.812201996E0,1.204265262E1
1.512202288E1,7.403304749E0,-4.447551270E0,2.570005646E0,9.010802545E0
1.513194387E1,4.910538483E0,-2.594255219E0,2.362537079E0,6.035323502E0
1.514186487E1,2.877466278E0,-7.316784668E-1,2.072889404E0,3.621054548E0
1.515178587E1,1.440753937E0,9.190887451E-1,1.631008301E0,2.362347160E0
1.516170687E1,4.725672913E-1,2.222877502E0,1.012045441E0,2.487717872E0
1.517162787E1,-2.158511353E-1,3.016826477E0,1.203497314E-1,3.026932071E0
1.518154887E1,-8.300239563E-1,3.198099518E0,-9.889933777E-1,3.448896663E0
1.519146987E1,-1.250349884E0,2.904410248E0,-1.996398468E0,3.739596310E0
1.520139087E1,-1.472338257E0,2.467468872E0,-2.703527985E0,3.945281503E0
1.521131187E1,-1.518891449E0,2.008822632E0,-3.152893524E0,4.035236942E0
1.522123287E1,-1.432371368E0,1.542093201E0,-3.261118469E0,3.881318442E0
1.523115388E1,-1.215023346E0,1.340462494E0,-3.017275543E0,3.518106470E0
1.524107487E1,-7.927514648E-1,1.401984558E0,-2.595153351E0,3.054314408E0
1.525099587E1,-1.483415222E-1,1.495540009E0,-1.968556366E0,2.476662934E0
1.526091687E1,4.294569397E-1,1.589095459E0,-1.305884399E0,2.101188165E0
1.527083787E1,9.442364502E-1,1.606010284E0,-8.238867188E-1,2.037066723E0
1.528075887E1,1.236129456E0,1.586251373E0,-4.074526978E-1,2.051883805E0
1.529067987E1,1.457668762E0,1.532662811E0,4.041595459E-2,2.115534675E0
1.530060087E1,1.682650909E0,1.402283936E0,6.123765564E-1,2.274361309E0
1.531052187E1,1.752555542E0,1.305884399E0,1.190025330E0,2.488562894E0
1.532044287E1,1.802701263E0,1.282532959E0,1.755399628E0,2.824190236E0
1.533036387E1,1.872605896E0,1.188079376E0,2.189945984E0,3.116736893E0
1.534028487E1,1.755249939E0,9.261241150E-1,2.379302216E0,3.098336208E0
1.535020588E1,1.508862305E0,5.776487732E-1,2.265688477E0,2.782748252E0
1.536012687E1,1.379381561E0,2.670446777E-1,1.831142120E0,2.308048487E0
1.537004787E1,1.508562927E0,5.388793945E-3,1.161734161E0,1.904052890E0
1.537996887E1,2.069596252E0,-4.558021545E-1,4.620890808E-1,2.168988375E0
1.538988987E1,3.170257416E0,-1.368454285E0,-1.019380188E-1,3.454502941E0
1.539981087E1,4.896018677E0,-2.661914520E0,-6.472540283E-1,5.610323126E0
1.540973125E1,7.595654755E0,-4.278852081E0,-1.074315948E0,8.783888720E0
1.541965225E1,1.091994186E1,-5.830824738E0,-1.099763031E0,1.242791721E1
1.542957325E1,1.370864273E1,-6.825057220E0,-9.662406921E-1,1.534411655E1
1.543949425E1,1.567360657E1,-7.178322601E0,-8.593629456E-1,1.726061305E1
1.544941525E1,1.711406113E1,-7.615263977E0,-1.833686829E-1,1.873277763E1
1.545933625E1,1.884386398E1,-8.633147278E0,1.150507507E0,2.075924154E1
1.546925725E1,2.066452789E1,-1.031205597E1,2.445614319E0,2.322374304E1
1.547917825E1,2.273128006E1,-1.241772720E1,3.389401703E0,2.612276949E1
1.548909925E1,2.458577362E1,-1.423659485E1,3.789369965E0,2.866182517E1
1.549902025E1,2.557192291E1,-1.518666916E1,3.603456573E0,2.995902303E1
1.550894125E1,2.586501343E1,-1.558663742E1,3.199895782E0,3.036744175E1
1.551886225E1,2.587384506E1,-1.598795288E1,2.880160675E0,3.055103633E1
1.552878325E1,2.594285156E1,-1.620290588E1,2.812052307E0,3.071601121E1
1.553870425E1,2.557207260E1,-1.580772766E1,3.167413330E0,3.022991330E1
1.554862525E1,2.453937012E1,-1.467503311E1,3.763922882E0,2.883928567E1
1.555854625E1,2.288965073E1,-1.303878571E1,4.301305389E0,2.669170791E1
1.556846725E1,2.061737595E1,-1.118129837E1,4.561614075E0,2.389363821E1
1.557838825E1,1.807176956E1,-9.269474030E0,4.581971741E0,2.082081816E1
1.558830925E1,1.556822571E1,-7.460934906E0,4.548591156E0,1.785286764E1
1.559823025E1,1.322574692E1,-5.585035858E0,4.538262634E0,1.505685342E1
1.560815125E1,1.085841980E1,-3.565136261E0,4.525688782E0,1.229216564E1
1.561807225E1,8.604706421E0,-1.644330597E0,4.350103912E0,9.781012205E0
1.562799425E1,6.505471802E0,2.921923828E-1,3.792064362E0,7.535667978E0
1.563791525E1,4.582420807E0,2.122286682E0,2.948568420E0,5.847797615E0
1.564783625E1,3.066373444E0,3.435505829E0,1.790726166E0,4.940854845E0
1.565775725E1,1.837878113E0,4.147724762E0,4.831951904E-1,4.562334298E0
1.566767825E1,9.313632202E-1,4.272565155E0,-8.637039185E-1,4.457379826E0
1.567759925E1,-1.242416382E-2,3.894601135E0,-2.160307617E0,4.453650341E0
1.568752025E1,-9.189390564E-1,3.351979523E0,-3.197650452E0,4.722836449E0
1.569744125E1,-1.591191101E0,2.863994293E0,-3.958967285E0,5.138849521E0
1.570736225E1,-1.815275116E0,2.455194397E0,-4.405788116E0,5.360426494E0
1.571728325E1,-1.653760986E0,2.118544464E0,-4.490511932E0,5.233340564E0
1.572720425E1,-1.012195129E0,1.908980255E0,-4.114493866E0,4.647343797E0
1.573712525E1,-4.086502075E-2,1.780996399E0,-3.262615356E0,3.717294323E0
1.574704625E1,7.688012695E-1,1.639839935E0,-2.224075012E0,2.868211998E0
1.575696725E1,1.341210938E0,1.418450317E0,-1.302441559E0,2.346742870E0
1.576688825E1,1.695973206E0,1.287023621E0,-3.411405945E-1,2.156184551E0
1.577680925E1,1.879790955E0,1.301543427E0,6.301895142E-1,2.371659366E0
1.578673025E1,1.980381775E0,1.300645294E0,1.461111603E0,2.783601493E0
1.579665125E1,2.073488159E0,1.271006927E0,2.127825165E0,3.231478251E0
1.580657225E1,2.082918549E0,1.250349884E0,2.600242767E0,3.558537194E0
1.581649325E1,1.962269440E0,1.150058441E0,2.811303864E0,3.616153369E0
1.582641425E1,1.607806549E0,9.310638428E-1,2.682272186E0,3.262898383E0
1.583633525E1,1.129401398E0,6.393205261E-1,2.304457855E0,2.644769226E0
1.584625625E1,8.487350464E-1,3.540138245E-1,1.759291534E0,1.985140718E0
1.585617725E1,8.692424011E-1,1.766326904E-2,1.185983734E0,1.470527715E0
1.586609825E1,1.123862915E0,-4.010160828E-1,6.867718506E-1,1.376785141E0
1.587601925E1,1.701960754E0,-1.098116455E0,8.053253174E-2,2.027070706E0
1.588594025E1,2.649640045E0,-2.105671234E0,-6.176156616E-1,3.440333243E0
1.589586125E1,4.229604492E0,-3.318449249E0,-1.365460510E0,5.546723536E0
1.590578225E1,6.872957611E0,-4.640949097E0,-1.569336548E0,8.440306395E0
1.591570325E1,1.016116974E1,-6.031557312E0,-1.149160309E0,1.187222066E1
1.592562425E1,1.351314926E1,-7.161108398E0,-3.986210632E-1,1.529854814E1
1.593554525E1,1.636442001E1,-7.849377136E0,3.284170532E-1,1.815254312E1
1.594546625E1,1.853116425E1,-8.372688904E0,1.211730194E0,2.037091696E1
1.595538725E1,2.035901321E1,-9.247020721E0,2.257754974E0,2.247430241E1
1.596530825E1,2.158361664E1,-1.039064255E1,3.164120178E0,2.416256642E1
1.597522925E1,2.247725830E1,-1.150851791E1,3.795656891E0,2.553585982E1
1.598515025E1,2.346385666E1,-1.266935394E1,4.079167328E0,2.697600239E1
1.599507125E1,2.412757645E1,-1.377929581E1,3.939208374E0,2.806289901E1
1.600499225E1,2.438234665E1,-1.477038483E1,3.463796997E0,2.871691114E1
1.601491325E1,2.436767715E1,-1.566627182E1,2.915936279E0,2.911560487E1
1.602483425E1,2.421529404E1,-1.631322647E1,2.550097046E0,2.930878398E1
1.603475525E1,2.392908920E1,-1.643597122E1,2.430196381E0,2.913156904E1
1.604467625E1,2.335667953E1,-1.564471664E1,2.475252686E0,2.822088790E1
1.605459725E1,2.226245499E1,-1.394155838E1,2.544259186E0,2.639047569E1
1.606451825E1,2.072021210E1,-1.188363785E1,2.451003113E0,2.401156917E1
1.607443925E1,1.884296585E1,-9.935738525E0,2.060764618E0,2.140147221E1
1.608436025E1,1.645243698E1,-8.269852753E0,1.622925110E0,1.848531939E1
1.609428125E1,1.392075165E1,-6.858886871E0,1.453926544E0,1.558671094E1
1.610420225E1,1.164892593E1,-5.359754333E0,1.679806824E0,1.293236996E1
1.611412325E1,9.638307037E0,-3.643722839E0,2.057770844E0,1.050752585E1
1.612404425E1,7.900271301E0,-1.765129395E0,2.089355164E0,8.360345293E0
1.613396525E1,6.405779114E0,-1.142124939E-1,1.422342224E0,6.562782028E0
1.614388625E1,4.960833893E0,1.188977509E0,4.002676392E-1,5.117006411E0
1.615380725E1,3.418291626E0,2.226769409E0,-7.243437195E-1,4.143415676E0
1.616372825E1,1.894759827E0,2.963237915E0,-1.638193359E0,3.880022065E0
1.617364925E1,5.791456604E-1,3.276087341E0,-2.209555206E0,3.993781688E0
1.618357025E1,-4.519102478E-1,3.124602356E0,-2.461631012E0,4.003372328E0
1.619349125E1,-1.260229340E0,2.706222382E0,-2.425705719E0,3.846539458E0
1.620341225E1,-1.758094025E0,2.258503418E0,-2.238744507E0,3.633690859E0
1.621333325E1,-1.918560333E0,1.857038269E0,-2.033970337E0,3.356560772E0
1.622325425E1,-1.759291534E0,1.577868805E0,-1.770518188E0,2.952881868E0
1.623317525E1,-1.247056732E0,1.421893158E0,-1.462309113E0,2.390664884E0
1.624309625E1,-5.034031677E-1,1.309626617E0,-9.752220154E-1,1.708682125E0
1.625301725E1,2.713856506E-1,1.185235291E0,-4.625381470E-1,1.300912911E0
1.626293825E1,1.068029022E0,1.089284821E0,2.315684509E-1,1.543000765E0
1.627285925E1,1.610650635E0,1.065783691E0,1.075214081E0,2.210469557E0
1.628278025E1,1.900447998E0,1.090931396E0,1.944157104E0,2.929433521E0
1.629270125E1,2.185605011E0,1.164278870E0,2.722239075E0,3.680081539E0
1.630262225E1,2.007774811E0,1.136287079E0,3.150947571E0,3.905224528E0
1.631254325E1,1.206940155E0,8.373587036E-1,3.063529358E0,3.397511775E0
1.632246425E1,1.537602539E0,5.397775269E-1,2.931054840E0,3.353604601E0
1.633238525E1,1.487157440E0,6.053411865E-1,2.234403534E0,2.751478576E0
1.634230625E1,1.261277161E0,4.947212219E-1,1.044677582E0,1.710824483E0
1.635222725E1,1.608854370E0,2.977308655E-1,2.390528870E-1,1.653542360E0
1.636214825E1,2.175126801E0,-4.984634399E-2,-4.745132446E-1,2.226841727E0
1.637206925E1,3.066074066E0,-1.012943573E0,-1.118623810E0,3.417335817E0
1.638199125E1,4.764741669E0,-2.368524628E0,-1.434167633E0,5.510853734E0
1.639191225E1,6.707252197E0,-3.349135437E0,-1.428329773E0,7.631780012E0
1.640183325E1,9.044342194E0,-4.024980011E0,-1.361568604E0,9.992720294E0
1.641175487E1,1.151091293E1,-4.700076141E0,-1.205143890E0,1.249176545E1
1.642167587E1,1.360595627E1,-5.288652191E0,-1.078806610E0,1.463747627E1
1.643159687E1,1.556702820E1,-6.200555878E0,-9.077124023E-1,1.678103697E1
1.644151787E1,1.729623230E1,-7.450007629E0,-9.572593689E-1,1.885679217E1
1.645143887E1,1.859807510E1,-8.431965637E0,-1.022523651E0,2.044583079E1
1.646135987E1,1.943962509E1,-9.349707184E0,-8.135581970E-1,2.158652184E1
1.647128087E1,2.021845551E1,-1.046204407E1,-4.596940613E-1,2.276953288E1
1.648120187E1,2.115640503E1,-1.165371597E1,8.382568359E-3,2.415372932E1
1.649112287E1,2.219015533E1,-1.287188278E1,5.504054260E-1,2.565913690E1
1.650104388E1,2.293365921E1,-1.381252670E1,1.198108521E0,2.679877017E1
1.651096487E1,2.331057541E1,-1.438164322E1,1.886676636E0,2.745494739E1
1.652088587E1,2.360201935E1,-1.478385681E1,2.589465179E0,2.797003878E1
