"Time (s)","Acceleration x (m/s^2)","Acceleration y (m/s^2)","Acceleration z (m/s^2)","Absolute acceleration (m/s^2)"



3.851220958E0,6.503525848E0,-5.770949249E0,7.719447327E-1,8.729009243E0
3.861141958E0,6.419999542E0,-5.760021973E0,8.455915833E-1,8.666560585E0
3.871061958E0,6.383325806E0,-5.759273529E0,9.813592529E-1,8.653273710E0
3.880982958E0,6.350993042E0,-5.752687225E0,1.111438751E0,8.640822821E0
3.890903958E0,6.354435883E0,-5.742508392E0,1.188977509E0,8.646902656E0
3.900824958E0,6.371500397E0,-5.755381622E0,1.249302063E0,8.676473395E0
3.910745958E0,6.352938995E0,-5.799090729E0,1.328487396E0,8.703686915E0
3.920666958E0,6.330785065E0,-5.852679291E0,1.362466736E0,8.728631624E0
3.930587958E0,6.350693665E0,-5.896388397E0,1.342558136E0,8.769331132E0
3.940508958E0,6.378236389E0,-5.889652405E0,1.314266968E0,8.780501270E0
3.950429958E0,6.361770630E0,-5.835764465E0,1.325044556E0,8.734072104E0
3.960350958E0,6.330635376E0,-5.857918396E0,1.327738953E0,8.726685678E0
3.970270958E0,6.290518799E0,-5.958808594E0,1.306632843E0,8.762723093E0
3.980191958E0,6.241271210E0,-6.029910736E0,1.300794983E0,8.775269647E0
3.990112958E0,6.228248291E0,-6.109694824E0,1.284927979E0,8.818757709E0
4.000033958E0,6.277645569E0,-6.264472961E0,1.244362335E0,8.955495128E0
4.009954958E0,6.372697906E0,-6.432872772E0,1.134490814E0,9.125798602E0
4.019875958E0,6.492299194E0,-6.547684021E0,1.008153534E0,9.275693420E0
4.029796958E0,6.594835968E0,-6.650071106E0,9.623487854E-1,9.414957373E0
4.039717958E0,6.702462158E0,-6.763684845E0,9.488768005E-1,9.569263234E0
4.049637958E0,6.777007141E0,-6.881938934E0,9.761201477E-1,9.707817460E0
4.059558958E0,6.877148895E0,-6.944059753E0,1.055155792E0,9.829979478E0
4.069479958E0,6.966662750E0,-6.956633606E0,1.184187469E0,9.916221103E0
4.079400958E0,7.054380341E0,-6.938820648E0,1.322350159E0,9.982991732E0
4.089321958E0,7.167245636E0,-6.849755859E0,1.461560669E0,1.002121375E1
4.099242958E0,7.247778168E0,-6.703509979E0,1.550176392E0,9.993516961E0
4.109163958E0,7.391928406E0,-6.600673828E0,1.542093201E0,1.002933457E1
4.119084958E0,7.634723511E0,-6.715036011E0,1.427431641E0,1.026734010E1
4.129004958E0,7.921976166E0,-7.034771118E0,1.137634277E0,1.065551138E1
4.138925958E0,8.074209595E0,-7.319628754E0,8.032296753E-1,1.092771722E1
4.148846958E0,8.019722900E0,-7.341333618E0,5.233117676E-1,1.088508107E1
4.158767958E0,8.059989166E0,-7.121740265E0,3.475772095E-1,1.076119973E1
4.168688958E0,8.272098083E0,-6.887926483E0,3.591032410E-1,1.077033394E1
4.178609958E0,8.531059570E0,-6.741979980E0,4.580474854E-1,1.088315574E1
4.188530958E0,8.753347321E0,-6.841972046E0,6.171665955E-1,1.112719935E1
4.198451958E0,8.882229309E0,-7.186854858E0,8.538244629E-1,1.145748212E1
4.208372958E0,8.893905029E0,-7.475005646E0,1.121467896E0,1.167197268E1
4.218292958E0,8.761879578E0,-7.561076660E0,1.371298370E0,1.165422126E1
4.228213958E0,8.599467316E0,-7.465724945E0,1.573228455E0,1.149621393E1
4.238134958E0,8.454868011E0,-7.216343536E0,1.658101959E0,1.123875924E1
4.248055958E0,8.369994507E0,-6.898704071E0,1.676663361E0,1.097543284E1
4.257976958E0,8.291258240E0,-6.604865112E0,1.689686279E0,1.073425573E1
4.267897958E0,8.278684387E0,-6.277944946E0,1.667981415E0,1.052289741E1
4.277818958E0,8.307274933E0,-5.975124664E0,1.612297211E0,1.035917149E1
4.287739958E0,8.332871704E0,-5.717510376E0,1.546284485E0,1.022338845E1
4.297660958E0,8.323591003E0,-5.479954376E0,1.426084442E0,1.006706432E1
4.307580958E0,8.265212402E0,-5.326224060E0,1.249751129E0,9.911825093E0
4.317501208E0,8.143665161E0,-5.273383942E0,1.032253418E0,9.756710899E0
4.327422208E0,7.989336090E0,-5.238805847E0,7.934999084E-1,9.586668867E0
4.337343208E0,7.780969391E0,-5.136418762E0,6.026467896E-1,9.342883148E0
4.347264208E0,7.582332458E0,-5.023104401E0,4.287084961E-1,9.105335486E0
4.357185208E0,7.381749573E0,-4.909041595E0,3.400927734E-1,8.871560135E0
4.367106208E0,7.193441162E0,-4.832101593E0,2.845582581E-1,8.670396471E0
4.377027208E0,7.046895905E0,-4.735851746E0,1.818717957E-1,8.492356033E0
4.386947208E0,6.877298584E0,-4.601880341E0,1.059796143E-1,8.275612978E0
4.396868208E0,6.716682587E0,-4.536316681E0,1.242416382E-2,8.105069300E0
4.406789208E0,6.582112427E0,-4.569846954E0,-7.798782349E-2,8.013350565E0
4.416710208E0,6.427334290E0,-4.636907501E0,-1.296304321E-1,7.926433075E0
4.426631208E0,6.296356659E0,-4.760251007E0,-1.589694214E-1,7.894895066E0
4.436552208E0,6.243217163E0,-4.949008484E0,-1.645079041E-1,7.968532385E0
4.446473208E0,6.241271210E0,-5.108127594E0,-5.284011841E-2,8.065310032E0
4.456394208E0,6.343508606E0,-5.161865845E0,2.115101624E-1,8.181057204E0
4.466315208E0,6.582711182E0,-5.161716156E0,5.292993164E-1,8.381858860E0
4.476235208E0,6.886130219E0,-5.157824249E0,8.090675354E-1,8.641558346E0
4.486156208E0,7.214846649E0,-5.136119385E0,1.057700500E0,8.919218848E0
4.496077208E0,7.486531677E0,-5.121000824E0,1.219813385E0,9.152089963E0
4.505998208E0,7.591912537E0,-5.157225494E0,1.222807159E0,9.259015505E0
4.515919208E0,7.605683899E0,-5.219046936E0,1.130898285E0,9.293213084E0
4.525840208E0,7.587571564E0,-5.270090790E0,1.084943848E0,9.301731146E0
4.535761208E0,7.567064209E0,-5.265749817E0,1.049467621E0,9.278467770E0
4.545682208E0,7.624993744E0,-5.222340088E0,9.481283569E-1,9.290442022E0
4.555602208E0,7.756570129E0,-5.198838959E0,8.803193665E-1,9.379086783E0
4.565523208E0,7.899672546E0,-5.243296509E0,8.845106506E-1,9.522570226E0
4.575444208E0,8.025411072E0,-5.354365540E0,9.928852844E-1,9.698570740E0
4.585365208E0,8.243357849E0,-5.512287140E0,1.179247742E0,9.986434968E0
4.595286208E0,8.480165405E0,-5.662873993E0,1.325194244E0,1.028287348E1
4.605207208E0,8.601113892E0,-5.747897186E0,1.429676971E0,1.044324942E1
4.615128208E0,8.662635956E0,-5.838009796E0,1.489253082E0,1.055184793E1
4.625049208E0,8.731941833E0,-5.969286804E0,1.506616974E0,1.068405765E1
4.634970208E0,8.751251678E0,-6.077511749E0,1.439855804E0,1.075145291E1
4.644890208E0,8.715925140E0,-6.098767548E0,1.408570862E0,1.073062852E1
4.654811208E0,8.681945801E0,-6.132746887E0,1.419049072E0,1.072382709E1
4.664732208E0,8.677754517E0,-6.277495880E0,1.433868256E0,1.080584824E1
4.674653208E0,8.701854401E0,-6.454877014E0,1.524729309E0,1.094132107E1
4.684574208E0,8.682544556E0,-6.593788147E0,1.605112152E0,1.102002755E1
4.694495208E0,8.659642181E0,-6.755302277E0,1.655407562E0,1.110692963E1
4.704416208E0,8.683442688E0,-6.894363098E0,1.791474609E0,1.123137573E1
4.714337208E0,8.678952026E0,-6.962471466E0,1.998643799E0,1.130463596E1
4.724257208E0,8.699609070E0,-6.995702362E0,2.220183105E0,1.138210273E1
4.734178208E0,8.817264404E0,-7.082970886E0,2.462080078E0,1.157473397E1
4.744099208E0,8.821605377E0,-7.251520386E0,2.717299347E0,1.173835530E1
4.754020208E0,8.739575958E0,-7.476652222E0,3.025807800E0,1.189268806E1
4.763941208E0,8.562793579E0,-7.584877167E0,3.186423798E0,1.187455650E1
4.773862208E0,8.404722290E0,-7.545958099E0,3.180885315E0,1.173451626E1
4.783783208E0,8.237370300E0,-7.474556580E0,3.152594147E0,1.156123330E1
4.793704208E0,8.138276367E0,-7.475155334E0,3.029100952E0,1.145796413E1
4.803624208E0,8.095465393E0,-7.644303589E0,2.908601532E0,1.150790599E1
4.813545208E0,7.990383911E0,-7.790549469E0,2.885848846E0,1.152679572E1
4.823466208E0,7.938441925E0,-7.672594757E0,3.005450134E0,1.144204095E1
4.833387208E0,8.030051422E0,-7.244485016E0,3.251987457E0,1.129334810E1
4.843308208E0,8.281229095E0,-6.615642700E0,3.462150421E0,1.115042462E1
4.853229208E0,8.644224243E0,-6.042933655E0,3.531905365E0,1.112268023E1
4.863150208E0,8.955576782E0,-5.748645630E0,3.553610229E0,1.121951103E1
4.873071208E0,8.957223358E0,-5.784271545E0,3.542233887E0,1.123552707E1
4.882992208E0,8.663683777E0,-5.902076569E0,3.479364624E0,1.104535661E1
4.892912208E0,8.207881622E0,-5.943240967E0,3.343297577E0,1.067094525E1
4.902833208E0,7.830366669E0,-5.916596375E0,3.170856171E0,1.031382973E1
4.912754208E0,7.599696350E0,-5.907165985E0,2.963986359E0,1.007150484E1
4.922675208E0,7.471712494E0,-5.905669098E0,2.797083435E0,9.926081343E0
4.932596208E0,7.439379730E0,-5.883365479E0,2.642904053E0,9.845978974E0
4.942517208E0,7.478149109E0,-5.889353027E0,2.494412842E0,9.840187427E0
4.952438208E0,7.545958099E0,-5.993536377E0,2.262395325E0,9.898605687E0
4.962359208E0,7.612719269E0,-6.140231323E0,1.956730957E0,9.974203297E0
4.972280208E0,7.654781799E0,-6.296356659E0,1.694775696E0,1.005544908E1
4.982200208E0,7.644303589E0,-6.446793823E0,1.510508881E0,1.011326678E1
4.992121208E0,7.610473938E0,-6.577472076E0,1.411265259E0,1.015746632E1
5.002042208E0,7.536078644E0,-6.698270874E0,1.374591522E0,1.017589386E1
5.011963208E0,7.399412842E0,-6.792724457E0,1.438957672E0,1.014706929E1
5.021884208E0,7.230114899E0,-6.857839050E0,1.565594330E0,1.008739825E1
5.031805208E0,7.003186798E0,-6.860533447E0,1.728006592E0,9.954775301E0
5.041726208E0,6.782545624E0,-6.822362823E0,1.871558075E0,9.800524948E0
5.051647208E0,6.586752777E0,-6.799610138E0,1.944905548E0,9.664505562E0
5.061567208E0,6.407874756E0,-6.754703522E0,1.980531464E0,9.518896125E0
5.071488208E0,6.186036072E0,-6.657705231E0,1.991159363E0,9.303590534E0
5.081409208E0,6.000871124E0,-6.534960480E0,1.941462708E0,9.082149534E0
5.091330208E0,5.931714935E0,-6.431375885E0,1.864672394E0,8.945660455E0
5.101251208E0,5.917494507E0,-6.347849579E0,1.779948578E0,8.858902441E0
5.111172208E0,5.881718903E0,-6.305487671E0,1.703906708E0,8.789601247E0
5.121093208E0,5.833818512E0,-6.305487671E0,1.633553009E0,8.744204288E0
5.131014208E0,5.733227692E0,-6.280040588E0,1.545985107E0,8.642851353E0
5.140935208E0,5.686225433E0,-6.187532959E0,1.397194519E0,8.518854167E0
5.150855208E0,5.758674774E0,-6.127208405E0,1.203647003E0,8.494338355E0
5.160776208E0,5.797444153E0,-6.131399689E0,1.100062408E0,8.509674386E0
5.170697208E0,5.879473572E0,-6.197861481E0,1.004561005E0,8.601792791E0
5.180618208E0,6.042334900E0,-6.339467010E0,1.055455170E0,8.821147240E0
5.190539208E0,6.149512024E0,-6.421646118E0,1.260229340E0,8.980101057E0
5.200460208E0,6.252348175E0,-6.381230164E0,1.468146973E0,9.053585568E0
5.210381208E0,6.385271759E0,-6.346203003E0,1.633553009E0,9.149561925E0
5.220302208E0,6.449937286E0,-6.321055298E0,1.746567993E0,9.198256945E0
5.230222208E0,6.437363434E0,-6.299051056E0,1.803599396E0,9.185350454E0
5.240143208E0,6.367608490E0,-6.323600006E0,1.798210602E0,9.152481428E0
5.250064208E0,6.323600006E0,-6.471941528E0,1.738484802E0,9.213917386E0
5.259985208E0,6.284830627E0,-6.731501770E0,1.715732117E0,9.367814515E0
5.269906208E0,6.209387512E0,-6.924450531E0,1.724264374E0,9.459259805E0
5.279827208E0,6.174959106E0,-7.037315826E0,1.756896515E0,9.525787074E0
5.289748208E0,6.181545410E0,-7.132218475E0,1.826801147E0,9.613388917E0
5.299669208E0,6.224805450E0,-7.268285522E0,1.919907532E0,9.760236793E0
5.309589208E0,6.317462769E0,-7.450456696E0,1.936972046E0,9.958488917E0
5.319510458E0,6.401438141E0,-7.643255768E0,1.949246521E0,1.015860871E1
5.329431458E0,6.448440399E0,-7.803422699E0,1.983674927E0,1.031555891E1
5.339352458E0,6.532864838E0,-7.938890991E0,1.962868195E0,1.046695585E1
5.349273458E0,6.608757019E0,-8.042325897E0,1.952839050E0,1.059095159E1
5.359194458E0,6.635700989E0,-8.009394379E0,1.965113525E0,1.058511205E1
5.369115458E0,6.618786163E0,-7.871381378E0,1.925446014E0,1.046299754E1
5.379036458E0,6.638395386E0,-7.766898651E0,1.819765778E0,1.037808053E1
5.388956458E0,6.763086090E0,-7.796686707E0,1.684896240E0,1.045784550E1
5.398877458E0,6.947053528E0,-7.997718658E0,1.556613007E0,1.070738533E1
5.408798458E0,7.053781586E0,-8.249794464E0,1.428329773E0,1.094783400E1
5.418719458E0,7.039112091E0,-8.294401703E0,1.373244324E0,1.096503528E1
5.428640458E0,6.888974304E0,-8.077353058E0,1.400936737E0,1.070813817E1
5.438561458E0,6.740183716E0,-7.665559387E0,1.415306854E0,1.030504589E1
5.448482458E0,6.712790680E0,-7.331304474E0,1.320703583E0,1.002765386E1
5.458403458E0,6.856192474E0,-7.280559998E0,1.041983185E0,1.005483257E1
5.468324458E0,7.076683960E0,-7.473359070E0,6.270460510E-1,1.031134028E1
5.478244458E0,7.133266296E0,-7.657775574E0,2.811154175E-1,1.046919484E1
5.488165458E0,7.031028900E0,-7.732919312E0,1.079255676E-1,1.045203599E1
5.498086458E0,6.746021576E0,-7.694449310E0,3.031196594E-1,1.023744298E1
5.508007458E0,6.390510864E0,-7.567662964E0,7.653584290E-1,9.934481635E0
5.517928458E0,6.201753387E0,-7.490872650E0,1.350042572E0,9.818224538E0
5.527849458E0,6.140530701E0,-7.531288605E0,2.013612671E0,9.923762458E0
5.537770458E0,6.176605682E0,-7.630083160E0,2.540367279E0,1.014012291E1
5.547691458E0,6.358028412E0,-7.725584564E0,2.943179626E0,1.042935705E1
5.557611458E0,6.580166473E0,-7.741750946E0,3.123704224E0,1.062971432E1
5.567532458E0,6.746770020E0,-7.623047791E0,3.056044922E0,1.062869578E1
5.577453458E0,6.900650024E0,-7.476053467E0,2.791395264E0,1.054998738E1
5.587374458E0,7.021299133E0,-7.321425018E0,2.426005096E0,1.043012016E1
5.597295458E0,7.082222443E0,-7.164251862E0,1.995350647E0,1.026965451E1
5.607216458E0,7.050189056E0,-7.002438354E0,1.537452850E0,1.005500223E1
5.617137458E0,6.915169830E0,-6.830446014E0,1.126557312E0,9.784870869E0
5.627058458E0,6.719077606E0,-6.638245697E0,8.735833740E-1,9.485539401E0
5.636978458E0,6.537954254E0,-6.424340515E0,7.063810730E-1,9.193256828E0
5.646899458E0,6.462361450E0,-6.159840546E0,5.791456604E-1,8.946572570E0
5.656820458E0,6.435118103E0,-5.923482056E0,5.002597046E-1,8.760630367E0
5.666741458E0,6.246510315E0,-5.705535278E0,5.962101746E-1,8.481007635E0
5.676662458E0,6.040987701E0,-5.553601227E0,5.465135193E-1,8.224031616E0
5.686583458E0,6.067332916E0,-5.642965393E0,3.124003601E-1,8.291753803E0
5.696504458E0,6.020630035E0,-5.549859009E0,3.336561584E-1,8.195135598E0
5.706425458E0,5.921985168E0,-5.431006165E0,4.376898193E-1,8.047192596E0
5.716345458E0,5.928721161E0,-5.399571533E0,5.541476440E-1,8.038170623E0
5.726266458E0,5.998176727E0,-5.385650482E0,7.475454712E-1,8.095812461E0
5.736187458E0,6.048921204E0,-5.429359589E0,1.025367737E0,8.192604730E0
5.746108458E0,6.108946381E0,-5.547014923E0,1.326840820E0,8.357577819E0
5.756029458E0,6.195616150E0,-5.691913605E0,1.531764679E0,8.551598856E0
5.765950458E0,6.287674713E0,-5.775140533E0,1.606309662E0,8.687193575E0
5.775871458E0,6.347400513E0,-5.805677032E0,1.575623474E0,8.745168289E0
5.785792458E0,6.402635651E0,-5.757327576E0,1.531614990E0,8.745650837E0
5.795713458E0,6.498436432E0,-5.683081970E0,1.469643860E0,8.757108530E0
5.805633458E0,6.605763245E0,-5.707181854E0,1.408720551E0,8.842653807E0
5.815554458E0,6.714437256E0,-5.759123840E0,1.380728760E0,8.953076956E0
5.825475458E0,6.838678894E0,-5.858816528E0,1.467697906E0,9.124001166E0
5.835396458E0,7.009473724E0,-5.950725403E0,1.562450867E0,9.326580693E0
5.845317458E0,7.195237427E0,-6.048023071E0,1.676813049E0,9.547865034E0
5.855238458E0,7.341034241E0,-6.156996460E0,1.762884064E0,9.742030043E0
5.865159458E0,7.449708252E0,-6.324498138E0,1.822310486E0,9.940736655E0
5.875080458E0,7.576045532E0,-6.508166199E0,1.917213135E0,1.016997539E1
5.885000458E0,7.726183319E0,-6.641838226E0,2.004930725E0,1.038401035E1
5.894921458E0,7.830965424E0,-6.743177490E0,2.046544189E0,1.053483769E1
5.904842458E0,7.972720642E0,-6.848408661E0,2.073637848E0,1.071284041E1
5.914763458E0,8.184530182E0,-6.969955902E0,2.108964386E0,1.095511526E1
5.924684458E0,8.370293884E0,-7.093898163E0,2.149380341E0,1.118056558E1
5.934605458E0,8.562194824E0,-7.240443420E0,2.173629913E0,1.142190300E1
5.944526458E0,8.766669617E0,-7.377109222E0,2.204914856E0,1.166781411E1
5.954447458E0,8.988508301E0,-7.466922455E0,2.267933807E0,1.190343380E1
5.964367458E0,9.156459045E0,-7.527995453E0,2.343227234E0,1.208313584E1
5.974288458E0,9.236841888E0,-7.520810394E0,2.517913971E0,1.217463461E1
5.984209458E0,9.288634186E0,-7.490423584E0,2.750530243E0,1.224543128E1
5.994130458E0,9.299262085E0,-7.545509033E0,2.899021454E0,1.232133545E1
6.004051458E0,9.242380371E0,-7.746990051E0,2.907553711E0,1.240529397E1
6.013972458E0,9.131760406E0,-8.077951813E0,2.835104370E0,1.251719499E1
6.023893458E0,8.990603943E0,-8.395291901E0,2.769391022E0,1.260878313E1
6.033814458E0,8.841513977E0,-8.624615021E0,2.742746429E0,1.265223346E1
6.043734458E0,8.781788177E0,-8.800199890E0,2.741548920E0,1.273104128E1
6.053655458E0,8.832981720E0,-8.983867950E0,2.776725769E0,1.290122690E1
6.063576458E0,8.857979736E0,-9.106013947E0,2.866539001E0,1.302306956E1
6.073497458E0,8.783734131E0,-8.956774292E0,3.081641693E0,1.291798384E1
6.083418458E0,8.748257904E0,-8.441246338E0,3.436104584E0,1.263303094E1
6.093339458E0,8.673263855E0,-7.618557129E0,3.906127167E0,1.218711402E1
6.103260458E0,8.550668793E0,-6.747219086E0,4.361480255E0,1.173292002E1
6.113181458E0,8.472531281E0,-6.125561829E0,4.671784973E0,1.145128241E1
6.123102458E0,8.418793030E0,-5.802234192E0,4.845423889E0,1.131459811E1
6.133022458E0,8.267607422E0,-5.764662323E0,4.812791748E0,1.116904779E1
6.142943458E0,7.918383636E0,-5.867199097E0,4.531826019E0,1.084722415E1
6.152864458E0,7.447462921E0,-5.970334625E0,3.981869659E0,1.034238297E1
6.162785458E0,7.032076721E0,-6.039341125E0,3.292104034E0,9.836752168E0
6.172706458E0,6.771019592E0,-6.078559570E0,2.608176270E0,9.465631317E0
6.182627458E0,6.566993866E0,-6.118975525E0,2.011816406E0,9.198623547E0
6.192548458E0,6.456523590E0,-6.198160858E0,1.549128571E0,9.083154420E0
6.202468458E0,6.514752502E0,-6.334227905E0,1.276246033E0,9.175687836E0
6.212389458E0,6.621779938E0,-6.459667053E0,1.132245483E0,9.319723591E0
6.222310458E0,6.807244263E0,-6.582561493E0,1.042432251E0,9.526560516E0
6.232231458E0,6.988068237E0,-6.711443481E0,1.074615326E0,9.748403428E0
6.242152458E0,7.086114349E0,-6.864575043E0,1.145418091E0,9.932139230E0
6.252073458E0,7.095095673E0,-7.001689911E0,1.257385254E0,1.004714198E1
6.261994458E0,6.992409210E0,-7.077133026E0,1.427581329E0,1.005075056E1
6.271915458E0,6.847959595E0,-7.061266022E0,1.581161957E0,9.962735647E0
6.281836458E0,6.753955078E0,-7.015311584E0,1.685944061E0,9.882960751E0
6.291756458E0,6.678362274E0,-6.929390259E0,1.761387177E0,9.783632087E0
6.301677458E0,6.630910950E0,-6.831793213E0,1.830393677E0,9.694984246E0
6.311598458E0,6.596781921E0,-6.781497803E0,1.885479126E0,9.646827235E0
6.321519125E0,6.548282776E0,-6.722819824E0,1.907483368E0,9.576784768E0
6.331440125E0,6.486760712E0,-6.668333130E0,1.918710022E0,9.498746202E0
6.341361125E0,6.371949463E0,-6.601422272E0,1.965712280E0,9.383205249E0
6.351282125E0,6.231990509E0,-6.539301453E0,1.991458740E0,9.250193355E0
6.361203125E0,6.141877899E0,-6.530469818E0,1.960922241E0,9.176868541E0
6.371123125E0,6.055657196E0,-6.505471802E0,1.863474884E0,9.081006887E0
6.381044125E0,5.971532135E0,-6.408323822E0,1.748813324E0,8.932197842E0
6.390965125E0,5.964496765E0,-6.318809967E0,1.675615540E0,8.849308928E0
6.400886125E0,5.991740112E0,-6.250701599E0,1.616787872E0,8.808304211E0
6.410807125E0,6.013744354E0,-6.219266968E0,1.565744019E0,8.791811935E0
6.420728125E0,5.992488556E0,-6.197113037E0,1.542691956E0,8.757512635E0
6.430649125E0,5.955964508E0,-6.157445526E0,1.556762695E0,8.706960360E0
6.440570125E0,5.943540344E0,-6.152056732E0,1.525777130E0,8.689158170E0
6.450490125E0,5.872737579E0,-6.177354126E0,1.432820435E0,8.643015971E0
6.460411125E0,5.828429718E0,-6.188131714E0,1.381028137E0,8.612247430E0
6.470332125E0,5.790259094E0,-6.167474670E0,1.410666504E0,8.576410914E0
6.480253125E0,5.717360687E0,-6.159092102E0,1.449884949E0,8.527883390E0
6.490174125E0,5.721102905E0,-6.132297821E0,1.454525299E0,8.511858720E0
6.500095125E0,5.838309174E0,-6.124064941E0,1.378633118E0,8.572669053E0
6.510016125E0,6.036197662E0,-6.146967316E0,1.277144165E0,8.709304600E0
6.519937125E0,6.195915527E0,-6.264772339E0,1.266216888E0,8.901687867E0
6.529857125E0,6.208639069E0,-6.430328064E0,1.340911560E0,9.038493343E0
6.539778125E0,6.222260742E0,-6.604715424E0,1.448986816E0,9.189034626E0
6.549699125E0,6.319408722E0,-6.731651459E0,1.604513397E0,9.371473801E0
6.559620125E0,6.448141022E0,-6.926995239E0,1.765578461E0,9.626996052E0
6.569541125E0,6.540049896E0,-7.181615753E0,1.884431305E0,9.894389259E0
6.579462125E0,6.603218536E0,-7.422015839E0,1.926044769E0,1.011921255E1
6.589383125E0,6.609505463E0,-7.681576080E0,1.880240021E0,1.030667144E1
6.599304125E0,6.663842468E0,-7.866741028E0,1.723964996E0,1.045296447E1
6.609224125E0,6.828649750E0,-7.929610291E0,1.451681213E0,1.056487364E1
6.619145125E0,7.117099915E0,-7.946375427E0,1.168170776E0,1.073138465E1
6.629066125E0,7.465275879E0,-8.009993134E0,9.577084351E-1,1.099124831E1
6.638987125E0,7.859406281E0,-8.270601196E0,8.427474976E-1,1.144042545E1
6.648908125E0,8.157735901E0,-8.684490509E0,7.788304138E-1,1.194050281E1
6.658829125E0,8.317902832E0,-9.111402740E0,7.397616577E-1,1.235930478E1
6.668750125E0,8.310119019E0,-9.406588898E0,7.993377686E-1,1.257700019E1
6.678671125E0,8.270451508E0,-9.554930420E0,9.068142700E-1,1.266962413E1
6.688591125E0,8.340206451E0,-9.762099609E0,1.027164001E0,1.288071032E1
6.698512125E0,8.278834076E0,-9.967472534E0,1.220412140E0,1.301456907E1
6.708433125E0,7.808212738E0,-9.677076416E0,1.566642151E0,1.253269172E1
6.718354125E0,7.138355713E0,-8.833580475E0,2.018552399E0,1.153528587E1
6.728275125E0,6.525679779E0,-7.773185577E0,2.489473114E0,1.045009029E1
6.738196125E0,5.980064392E0,-6.603966980E0,2.872676239E0,9.360866348E0
6.748117125E0,5.649102631E0,-5.689368896E0,2.981499939E0,8.553982748E0
6.758038125E0,5.493875427E0,-5.191055145E0,2.870879974E0,8.085275045E0
6.767958125E0,5.436993713E0,-5.046455841E0,2.703378296E0,7.895306923E0
6.777879125E0,5.467081146E0,-5.122497711E0,2.420765991E0,7.873313600E0
6.787800125E0,5.574108582E0,-5.211412811E0,1.881736908E0,7.859417520E0
6.797721125E0,5.752836914E0,-5.245691528E0,1.218765564E0,7.880215839E0
6.807642125E0,5.960604858E0,-5.331762543E0,5.825885010E-1,8.018473137E0
6.817563125E0,6.251300354E0,-5.537135468E0,-3.547622681E-2,8.351040885E0
6.827484125E0,6.548133087E0,-5.808970184E0,-5.528004456E-1,8.770847728E0
6.837405125E0,6.765930176E0,-6.008654938E0,-8.387059021E-1,9.087638466E0
6.847325125E0,6.920558624E0,-6.191275177E0,-1.004411316E0,9.339960497E0
6.857246125E0,7.016509094E0,-6.415359192E0,-1.061742096E0,9.566374951E0
6.867167125E0,7.043453064E0,-6.631210327E0,-9.216334534E-1,9.717643217E0
6.877088125E0,7.015311584E0,-6.840624847E0,-5.658233643E-1,9.814728779E0
6.887009125E0,7.005881195E0,-7.054829407E0,-2.275268555E-2,9.942510094E0
6.896930125E0,6.982978821E0,-7.224127350E0,5.287005615E-1,1.006128886E1
6.906851125E0,6.836583252E0,-7.323520660E0,1.026415558E0,1.007106520E1
6.916772125E0,6.717431030E0,-7.347171478E0,1.512155457E0,1.006933079E1
6.926692125E0,6.642137604E0,-7.240293732E0,1.923050995E0,1.001189145E1
6.936613125E0,6.539600830E0,-7.067852325E0,2.149380341E0,9.866141665E0
6.946534125E0,6.443201294E0,-6.850653992E0,2.283052368E0,9.677738948E0
6.956455125E0,6.319558411E0,-6.674320679E0,2.304457855E0,9.475964385E0
6.966376125E0,6.197113037E0,-6.512656860E0,2.208806763E0,9.257307205E0
6.976297125E0,6.086942139E0,-6.337820435E0,2.018253021E0,9.016217484E0
6.986218125E0,6.037694550E0,-6.205944672E0,1.719474335E0,8.827462644E0
6.996139125E0,6.070476379E0,-6.110742645E0,1.381028137E0,8.723479688E0
7.006059125E0,6.096073151E0,-6.006708984E0,1.044677582E0,8.621717458E0
7.015980125E0,6.189478912E0,-5.968388672E0,7.092251587E-1,8.627532258E0
7.025901125E0,6.359375610E0,-5.933660889E0,4.242178345E-1,8.708039416E0
7.035822125E0,6.566095734E0,-5.847889252E0,2.192939758E-1,8.795425614E0
7.045743125E0,6.753056946E0,-5.806126099E0,8.292755127E-2,8.906276178E0
7.055664125E0,6.910230103E0,-5.817652130E0,3.367996216E-2,9.033132940E0
7.065585125E0,7.019353180E0,-5.879623260E0,7.005432129E-2,9.156756869E0
7.075506125E0,7.063361664E0,-5.945635986E0,2.233355713E-1,9.235342119E0
7.085427125E0,7.058272247E0,-6.064788208E0,4.382885742E-1,9.316273933E0
7.095347125E0,7.091952209E0,-6.175408173E0,6.936575317E-1,9.429348493E0
7.105268125E0,7.157665558E0,-6.246660004E0,9.406439209E-1,9.546609263E0
7.115189125E0,7.197931824E0,-6.257437592E0,1.091530151E0,9.599853427E0
7.125110125E0,7.250472565E0,-6.206543427E0,1.123862915E0,9.610078125E0
7.135031125E0,7.269483032E0,-6.184239807E0,1.142124939E0,9.612213841E0
7.144952125E0,7.292834473E0,-6.297554169E0,1.141077118E0,9.702921217E0
7.154873125E0,7.341932373E0,-6.501130829E0,1.090182953E0,9.866973796E0
7.164794125E0,7.452402649E0,-6.721322937E0,1.075812836E0,1.009315910E1
7.174714125E0,7.631130981E0,-6.876400452E0,1.118025055E0,1.033290972E1
7.184635125E0,7.789801025E0,-6.985373840E0,1.200802917E0,1.053177931E1
7.194556125E0,7.989485779E0,-7.069498901E0,1.259331207E0,1.074223500E1
7.204477125E0,8.157137146E0,-7.155569916E0,1.353036346E0,1.093488796E1
7.214398125E0,8.263116760E0,-7.244784393E0,1.501976624E0,1.109152529E1
7.224319125E0,8.346194000E0,-7.347919922E0,1.646875305E0,1.124113338E1
7.234240125E0,8.426876221E0,-7.477101288E0,1.751956787E0,1.140125603E1
7.244160125E0,8.537945251E0,-7.619006195E0,1.867815857E0,1.159458928E1
7.254081125E0,8.661438446E0,-7.801776123E0,1.978735199E0,1.182385807E1
7.264002125E0,8.762029266E0,-8.074658661E0,2.017654266E0,1.208487477E1
7.273923125E0,8.834328918E0,-8.408913574E0,2.032024384E0,1.236463983E1
7.283844125E0,8.906329193E0,-8.743467865E0,2.118843842E0,1.265940082E1
7.293765125E0,8.997489624E0,-9.025182037E0,2.251468048E0,1.294132291E1
7.303686125E0,9.120084686E0,-9.226363678E0,2.401755524E0,1.319356514E1
7.313607125E0,9.266031189E0,-9.407487030E0,2.572250977E0,1.345275516E1
7.323527958E0,9.382339325E0,-9.487869873E0,2.780917053E0,1.363016748E1
7.333448958E0,9.468410339E0,-9.327403564E0,3.087030487E0,1.364481619E1
7.343369958E0,9.478888550E0,-8.856931915E0,3.435206451E0,1.341995583E1
7.353290958E0,9.392518158E0,-8.071664886E0,3.763773193E0,1.294361464E1
7.363211958E0,9.271719360E0,-7.077582092E0,4.048630829E0,1.234699801E1
7.373132958E0,9.165590057E0,-6.204896851E0,4.144581299E0,1.181889759E1
7.383053958E0,9.069190521E0,-5.689219208E0,4.080514526E0,1.145722613E1
7.392974958E0,8.877289581E0,-5.452711029E0,3.944297791E0,1.113983002E1
7.402894958E0,8.540040894E0,-5.397176514E0,3.700305176E0,1.075890660E1
7.412815958E0,8.032296753E0,-5.433251495E0,3.319946136E0,1.024988075E1
7.422736958E0,7.439080353E0,-5.488636322E0,2.887944489E0,9.685312000E0
7.432657958E0,6.952741699E0,-5.553601227E0,2.420765991E0,9.221887643E0
7.442578958E0,6.644233246E0,-5.640869751E0,1.993105316E0,8.940789438E0
7.452499958E0,6.467450867E0,-5.748945007E0,1.611848145E0,8.802064749E0
7.462420958E0,6.408024445E0,-5.890550537E0,1.313967590E0,8.802719679E0
7.472341958E0,6.425837402E0,-6.053860931E0,1.112336884E0,8.898197112E0
7.482261958E0,6.462511139E0,-6.262976074E0,9.514215088E-1,9.049537138E0
7.492182958E0,6.474935303E0,-6.524631958E0,8.080197144E-1,9.227594769E0
7.502103958E0,6.502028961E0,-6.821464691E0,7.265890503E-1,9.451808969E0
7.512024958E0,6.503226471E0,-7.140151978E0,7.550299072E-1,9.687300705E0
7.521945958E0,6.481671295E0,-7.384893036E0,8.969348145E-1,9.866772522E0
7.531866958E0,6.492748260E0,-7.536677399E0,1.120719452E0,1.001065923E1
7.541787958E0,6.546336823E0,-7.627538452E0,1.408570862E0,1.014977539E1
7.551708958E0,6.620732117E0,-7.653284912E0,1.680555267E0,1.025822254E1
7.561628958E0,6.734944611E0,-7.644752655E0,1.875000916E0,1.035940879E1
7.571549958E0,6.819219360E0,-7.595505066E0,2.010918274E0,1.040371290E1
7.581470958E0,6.894063721E0,-7.473658447E0,2.041305084E0,1.037066110E1
7.591391958E0,6.926995239E0,-7.393724670E0,2.031425629E0,1.033330139E1
7.601312958E0,6.875202942E0,-7.349865875E0,1.971400452E0,1.025550406E1
7.611233958E0,6.729855194E0,-7.207511902E0,1.722917175E0,1.001037573E1
7.621154958E0,6.593189392E0,-7.035220184E0,1.481319580E0,9.754936038E0
7.631075958E0,6.461313629E0,-6.944209442E0,1.370849304E0,9.583832553E0
7.640996958E0,6.241271210E0,-6.993457031E0,1.313817902E0,9.465095089E0
7.650916958E0,5.995332642E0,-6.917864227E0,1.238225098E0,9.237643658E0
7.660837958E0,5.939199371E0,-6.689289551E0,1.092577972E0,9.011903822E0
7.670758958E0,6.196214905E0,-6.631060638E0,9.993218994E-1,9.130317004E0
7.680679958E0,6.573131104E0,-6.441704407E0,1.079854431E0,9.266482275E0
7.690600958E0,6.690786438E0,-6.216722260E0,1.208437042E0,9.212740032E0
7.700521958E0,6.545588379E0,-6.193520508E0,1.217568054E0,9.093233499E0
7.710442958E0,6.364465027E0,-6.370751953E0,1.132395172E0,9.076079239E0
7.720362958E0,6.162834320E0,-6.497837677E0,1.124761047E0,9.025935339E0
7.730283958E0,5.904621277E0,-6.521189117E0,1.214873657E0,8.880674407E0
7.740204958E0,5.636079712E0,-6.583309937E0,1.331780548E0,8.768067271E0
7.750125958E0,5.477858734E0,-6.677164764E0,1.370250549E0,8.744658494E0
7.760046958E0,5.410947876E0,-6.711293793E0,1.340612183E0,8.724509288E0
7.769967958E0,5.452561340E0,-6.747069397E0,1.307231598E0,8.772811697E0
7.779888958E0,5.536087646E0,-6.771468658E0,1.265767822E0,8.837602752E0
7.789809958E0,5.626948700E0,-6.799011383E0,1.222657471E0,8.909769848E0
7.799729958E0,5.639821930E0,-6.846013641E0,1.160536652E0,8.945520639E0
7.809650958E0,5.662275238E0,-6.963668976E0,1.058448944E0,9.037386826E0
7.819571958E0,5.758225708E0,-7.144492950E0,9.868977356E-1,9.229025407E0
7.829492958E0,5.915698242E0,-7.323520660E0,9.547146606E-1,9.462606440E0
7.839413958E0,6.177054749E0,-7.530091095E0,9.469308472E-1,9.785446096E0
7.849334958E0,6.516698456E0,-7.764952698E0,1.041833496E0,1.019054788E1
7.859255958E0,6.700665894E0,-7.931705933E0,1.220561829E0,1.045469529E1
7.869176958E0,6.791976013E0,-8.055199127E0,1.394799500E0,1.062838825E1
7.879096958E0,6.857839050E0,-8.177045746E0,1.576222229E0,1.078788719E1
7.889017958E0,6.968608704E0,-8.363408203E0,1.706301727E0,1.101905484E1
7.898938958E0,7.126530304E0,-8.653954010E0,1.750310211E0,1.134645055E1
7.908859958E0,7.353009338E0,-9.158255310E0,1.713337097E0,1.186911583E1
7.918780958E0,7.599546661E0,-9.791288910E0,1.685794373E0,1.250857109E1
7.928701958E0,7.733069000E0,-1.027283752E1,1.719624023E0,1.297261168E1
7.938622958E0,7.831264801E0,-1.032717453E1,1.839075623E0,1.309050959E1
7.948543958E0,7.838300171E0,-9.906998291E0,1.947450256E0,1.278202360E1
7.958463958E0,7.797435150E0,-9.460027771E0,1.991159363E0,1.242001755E1
7.968384958E0,7.760012970E0,-9.291328583E0,1.986818390E0,1.226760105E1
7.978305958E0,7.400161285E0,-8.955576782E0,2.109413452E0,1.180738615E1
7.988226958E0,6.905889130E0,-8.282576294E0,2.325713654E0,1.103183207E1
7.998147958E0,6.445296936E0,-7.452252960E0,2.509232025E0,1.016730899E1
8.008068958E0,6.177653503E0,-6.587351532E0,2.492766266E0,9.368590431E0
8.017989958E0,6.167324982E0,-5.884562988E0,2.335293732E0,8.838414779E0
8.027910958E0,6.099665680E0,-5.422922974E0,2.018253021E0,8.407577549E0
8.037830958E0,5.983806610E0,-5.217999115E0,1.697619781E0,8.118828070E0
8.047751958E0,5.988297272E0,-5.247936859E0,1.400038605E0,8.084593594E0
8.057672958E0,6.206992493E0,-5.393284607E0,1.077609100E0,8.293100508E0
8.067593958E0,6.549031219E0,-5.601052551E0,7.104226685E-1,8.646750833E0
8.077514958E0,6.706204376E0,-5.854325867E0,2.097138977E-1,8.904509442E0
8.087435958E0,6.508914642E0,-6.180946655E0,-3.350033569E-1,8.982332583E0
8.097356958E0,6.286477203E0,-6.503675537E0,-7.222480774E-1,9.074096837E0
8.107277958E0,6.444698181E0,-6.673871613E0,-8.211923218E-1,9.313917209E0
8.117197958E0,6.610553284E0,-6.797963562E0,-7.737409973E-1,9.513695309E0
8.127118958E0,6.812782745E0,-6.965465240E0,-6.411167908E-1,9.764360987E0
8.137039958E0,7.059320068E0,-7.041806488E0,-4.805007935E-1,9.982580801E0
8.146960958E0,7.306007080E0,-7.640411682E0,-2.154020691E-1,1.057355324E1
8.156881958E0,6.879094849E0,-7.711513824E0,1.468446350E-1,1.033493855E1
8.166802958E0,6.172713776E0,-7.120093689E0,3.598516846E-1,9.430144364E0
8.176723958E0,6.102809143E0,-6.852450256E0,5.466632080E-1,9.192344348E0
8.186644958E0,6.208339691E0,-6.762038269E0,6.719526672E-1,9.204355690E0
8.196564958E0,6.166875916E0,-6.618486786E0,7.909552002E-1,9.080767370E0
8.206485958E0,6.135291595E0,-6.305936737E0,9.128018188E-1,8.845329177E0
8.216406958E0,6.300997009E0,-6.119873657E0,9.645941162E-1,8.836620321E0
8.226327958E0,6.533164215E0,-5.984105988E0,1.128652954E0,8.931159870E0
8.236248958E0,6.743476868E0,-5.916746063E0,1.342707825E0,9.071120578E0
8.246169958E0,6.935377808E0,-5.925428009E0,1.575174408E0,9.256961534E0
8.256090958E0,7.213499451E0,-5.840554504E0,1.871258698E0,9.468276525E0
8.266010958E0,7.483687592E0,-5.663323059E0,2.096390533E0,9.616322650E0
8.275931958E0,7.547305298E0,-5.450615387E0,2.282004547E0,9.585330986E0
8.285852958E0,7.401059418E0,-5.317242737E0,2.348017273E0,9.410735143E0
8.295773958E0,7.229067078E0,-5.285658417E0,2.351759491E0,9.258961519E0
8.305694958E0,7.150031433E0,-5.251230011E0,2.276615753E0,9.158675964E0
8.315615958E0,7.189100189E0,-5.124593353E0,2.030826874E0,9.059187401E0
8.325536833E0,7.212601318E0,-5.109774170E0,1.732347565E0,9.007354658E0
8.335457833E0,7.266339569E0,-5.186714172E0,1.475332031E0,9.048662843E0
8.345377833E0,7.462431793E0,-5.274731140E0,1.180894318E0,9.214401134E0
8.355298833E0,7.737409973E0,-5.338648224E0,8.222401428E-1,9.436352940E0
8.365219833E0,7.995024261E0,-5.353766785E0,5.891748047E-1,9.640039350E0
8.375140833E0,8.048014069E0,-5.272485809E0,5.469625854E-1,9.636846223E0
8.385061833E0,7.866291962E0,-5.077291718E0,6.894662476E-1,9.387907334E0
8.394982833E0,7.498955841E0,-4.834795990E0,9.867480469E-1,8.976818071E0
8.404903833E0,7.290439453E0,-4.672383728E0,1.261726227E0,8.750635988E0
8.414824833E0,7.359895020E0,-4.632865906E0,1.453178101E0,8.817212019E0
8.424744833E0,7.580835571E0,-4.658612366E0,1.855092316E0,9.089175135E0
8.434665833E0,7.885152740E0,-4.757556610E0,2.462978210E0,9.532903037E0
8.444586833E0,8.309370575E0,-4.966971130E0,2.651585999E0,1.003729794E1
8.454507833E0,8.683442688E0,-5.276826782E0,2.777474213E0,1.053382366E1
8.464428833E0,9.030570831E0,-5.514682159E0,2.917732544E0,1.097616017E1
8.474349833E0,9.187145233E0,-5.625451813E0,2.855761414E0,1.114471708E1
8.484270833E0,9.140292664E0,-5.708379364E0,2.632725220E0,1.109332173E1
8.494191833E0,9.174122314E0,-5.822741547E0,2.337539063E0,1.111453680E1
8.504111833E0,9.290131073E0,-5.863157501E0,2.086660767E0,1.118200807E1
8.514032833E0,9.388027496E0,-5.826334076E0,2.023941193E0,1.123287884E1
8.523953833E0,9.547146606E0,-5.799839172E0,2.035467224E0,1.135470253E1
8.533874833E0,9.843380585E0,-5.731132050E0,2.169738007E0,1.159507563E1
8.543795833E0,1.020188507E1,-5.652545471E0,2.310445404E0,1.188982284E1
8.553716833E0,1.037282959E1,-5.664969635E0,2.470911713E0,1.207447222E1
8.563637833E0,1.036280045E1,-5.824238434E0,2.715802460E0,1.219364463E1
8.573558833E0,1.018946091E1,-6.001769257E0,2.980302429E0,1.219543154E1
8.583478833E0,9.976154480E0,-6.077661438E0,3.135230255E0,1.209509386E1
8.593399833E0,9.815388794E0,-6.094576263E0,3.154390411E0,1.197647260E1
8.603320833E0,9.757758636E0,-6.252647552E0,3.107837219E0,1.199867106E1
8.613241833E0,9.728419647E0,-6.446045380E0,3.080444183E0,1.206991244E1
8.623162833E0,9.717642059E0,-6.459667053E0,3.141666870E0,1.208428469E1
8.633083833E0,9.756112061E0,-6.149961090E0,3.301235046E0,1.199591167E1
8.643004833E0,9.861941986E0,-5.560486908E0,3.463796997E0,1.183954408E1
8.652925833E0,9.922715607E0,-5.057532806E0,3.618575134E0,1.171038040E1
8.662845833E0,1.004456223E1,-4.804708557E0,3.684138794E0,1.172822805E1
8.672766833E0,1.013063324E1,-4.772824860E0,3.716770935E0,1.179932088E1
8.682687833E0,9.957293701E0,-4.878505096E0,3.784130859E0,1.171610670E1
8.692608833E0,9.491761780E0,-4.990771637E0,3.697161713E0,1.134329529E1
8.702529833E0,8.945248260E0,-5.045408020E0,3.471431122E0,1.084086909E1
8.712450833E0,8.634344788E0,-5.128185883E0,3.210373993E0,1.054308786E1
8.722371833E0,8.396190033E0,-5.189857635E0,2.886447601E0,1.028407551E1
8.732292833E0,8.270002441E0,-5.208419037E0,2.456391907E0,1.007742182E1
8.742212833E0,8.287815399E0,-5.278473358E0,2.111509094E0,1.005030526E1
8.752133833E0,8.362959137E0,-5.397625580E0,1.910477142E0,1.013525384E1
8.762054833E0,8.431067505E0,-5.525908813E0,1.823358307E0,1.024417898E1
8.771975833E0,8.339308319E0,-5.639372864E0,1.816173248E0,1.022961753E1
8.781896833E0,8.188871155E0,-5.767057343E0,1.807940369E0,1.017768193E1
8.791817833E0,8.020920410E0,-5.850733337E0,1.822011108E0,1.009385800E1
8.801738833E0,7.839347992E0,-5.870791626E0,1.805096283E0,9.958912784E0
8.811658833E0,7.761509857E0,-5.879174194E0,1.804946594E0,9.902704513E0
8.821579833E0,7.791597290E0,-5.841452637E0,1.838925934E0,9.910257607E0
8.831500833E0,7.876620483E0,-5.679489441E0,1.883982239E0,9.891771309E0
8.841421833E0,7.930358734E0,-5.490582275E0,1.977088623E0,9.846114096E0
8.851342833E0,7.942333832E0,-5.343438263E0,2.022593994E0,9.783858422E0
8.861263833E0,7.947722626E0,-5.272785187E0,1.967209167E0,9.738504529E0
8.871184833E0,7.835905151E0,-5.246589661E0,1.885030060E0,9.616727663E0
8.881105833E0,7.712112579E0,-5.280269623E0,1.779200134E0,9.514382841E0
8.891025833E0,7.602690125E0,-5.352868652E0,1.690734100E0,9.450538701E0
8.900946833E0,7.436385956E0,-5.412145386E0,1.702858887E0,9.353656085E0
8.910867833E0,7.263645172E0,-5.467679901E0,1.774260406E0,9.263048347E0
8.920788833E0,7.186405792E0,-5.538931732E0,1.784139862E0,9.247018330E0
8.930709833E0,7.183561707E0,-5.623954926E0,1.815574493E0,9.302082484E0
8.940630833E0,7.222780151E0,-5.533842316E0,1.884281616E0,9.292065492E0
8.950551833E0,7.235503693E0,-5.389991455E0,1.937570801E0,9.228147278E0
8.960472833E0,7.235204315E0,-5.362598419E0,1.979483643E0,9.220845882E0
8.970392833E0,7.205116882E0,-5.383255463E0,2.043550415E0,9.223299137E0
8.980313833E0,7.141499176E0,-5.349575500E0,2.112556915E0,9.169616417E0
8.990234833E0,6.991062012E0,-5.288352814E0,2.103276215E0,9.014732074E0
9.000155833E0,6.924450531E0,-5.219196625E0,1.984273682E0,8.895244269E0
9.010076833E0,6.966213684E0,-5.118456116E0,1.830094299E0,8.836060844E0
9.019997833E0,6.963219910E0,-5.023553467E0,1.686842194E0,8.750311853E0
9.029918833E0,6.914271698E0,-4.960384827E0,1.549427948E0,8.649468059E0
9.039838833E0,6.854246521E0,-4.983885956E0,1.523382111E0,8.610488235E0
9.049759833E0,6.817123718E0,-5.060227203E0,1.546733551E0,8.629684804E0
9.059680833E0,6.885681152E0,-5.123844910E0,1.582958221E0,8.727665686E0
9.069601833E0,6.968009949E0,-5.200036469E0,1.548829193E0,8.831331371E0
9.079522833E0,7.064259796E0,-5.325176239E0,1.492845612E0,8.971613927E0
9.089443833E0,7.178621979E0,-5.427563324E0,1.516795807E0,9.126430116E0
9.099364833E0,7.221432953E0,-5.484145660E0,1.548380127E0,9.199044980E0
9.109285833E0,7.368576965E0,-5.522615662E0,1.547032928E0,9.337479377E0
9.119206833E0,7.580985260E0,-5.586981812E0,1.501078491E0,9.536191059E0
9.129126833E0,7.732619934E0,-5.671256561E0,1.507515106E0,9.707170743E0
9.139047833E0,7.957452393E0,-5.678441620E0,1.629212036E0,9.910604405E0
9.148968833E0,8.210875397E0,-5.612728271E0,1.743424530E0,1.009756023E1
9.158889833E0,8.414452057E0,-5.613027649E0,1.813927917E0,1.027615771E1
9.168810833E0,8.550968170E0,-5.737418976E0,1.822759552E0,1.045750857E1
9.178731833E0,8.667276306E0,-5.997278595E0,1.762434998E0,1.068621571E1
9.188652833E0,8.837322693E0,-6.443500671E0,1.573827209E0,1.104961110E1
9.198573833E0,8.984017639E0,-6.864724731E0,1.397643585E0,1.139256012E1
9.208493833E0,9.135352936E0,-7.132667542E0,1.310973816E0,1.166397325E1
9.218414833E0,9.360933838E0,-7.308402100E0,1.339863739E0,1.195136220E1
9.228335833E0,9.652527466E0,-7.537126465E0,1.377435608E0,1.232383425E1
9.238256833E0,9.809101868E0,-7.798482971E0,1.434017944E0,1.261313694E1
9.248177833E0,9.672286377E0,-7.757617950E0,1.694326630E0,1.251417208E1
9.258098833E0,9.171876984E0,-7.194638672E0,2.226919098E0,1.186782717E1
9.268019833E0,8.595874786E0,-6.318211212E0,2.804717560E0,1.103065260E1
9.277939833E0,8.112230530E0,-5.501659241E0,3.215164032E0,1.031570736E1
9.287860833E0,7.806865540E0,-4.943320312E0,3.244353333E0,9.793334152E0
9.297781833E0,7.617359619E0,-4.699477386E0,3.044219513E0,9.453915999E0
9.307702833E0,7.298971710E0,-4.588258667E0,2.750230865E0,9.049357736E0
9.317623833E0,6.922205200E0,-4.571792908E0,2.482138367E0,8.659054573E0
9.327544958E0,6.697821808E0,-4.591402130E0,2.244732056E0,8.424999258E0
9.337465958E0,6.502627716E0,-4.563859406E0,1.986369324E0,8.188934178E0
9.347386958E0,6.393205261E0,-4.564158783E0,1.640738068E0,8.024751729E0
9.357306958E0,6.485712891E0,-4.651576996E0,1.272054749E0,8.082064311E0
9.367227958E0,6.688541107E0,-4.891677704E0,9.017248535E-1,8.335358457E0
9.377148958E0,6.993157654E0,-5.244643707E0,6.050418091E-1,8.762226725E0
9.387069958E0,7.434889069E0,-5.538782043E0,4.358935547E-1,9.281469990E0
9.396990958E0,7.921078033E0,-5.680836639E0,3.113525391E-1,9.752554667E0
9.406911958E0,8.282426605E0,-5.736670532E0,1.523831177E-1,1.007626914E1
9.416832958E0,8.514593811E0,-5.799240417E0,2.844085693E-2,1.030195642E1
9.426753958E0,8.571325836E0,-5.877976685E0,-1.451980591E-2,1.039319235E1
9.436673958E0,8.483159180E0,-5.951473846E0,-8.232879639E-3,1.036262990E1
9.446594958E0,8.348139954E0,-5.996081085E0,6.197113037E-2,1.027853440E1
9.456515958E0,8.153694305E0,-5.946983185E0,2.347119141E-1,1.009477239E1
9.466436958E0,7.938142548E0,-5.809119873E0,4.605921936E-1,9.847442611E0
9.476357958E0,7.790399780E0,-5.591921539E0,6.798861694E-1,9.613644493E0
9.486278958E0,7.713759155E0,-5.356012115E0,8.942404175E-1,9.433377551E0
9.496199958E0,7.601492615E0,-5.217250671E0,1.036744080E0,9.277781676E0
9.506119958E0,7.521259460E0,-5.133125610E0,1.098266144E0,9.171941503E0
9.516040958E0,7.442373505E0,-5.044958954E0,1.125659180E0,9.061326769E0
9.525961958E0,7.323071594E0,-4.975802765E0,1.066532135E0,8.917593931E0
9.535882958E0,7.247329102E0,-4.925507355E0,9.377998352E-1,8.812710726E0
9.545803958E0,7.218888245E0,-4.870571594E0,7.524851990E-1,8.740769366E0
9.555724958E0,7.280410309E0,-4.830005951E0,5.920188904E-1,8.756929720E0
9.565645958E0,7.373965759E0,-4.801714783E0,4.781057739E-1,8.812515022E0
9.575566958E0,7.436835022E0,-4.733157349E0,4.326004028E-1,8.825895804E0
9.585486958E0,7.529043274E0,-4.648433533E0,3.727249146E-1,8.856260542E0
9.595407958E0,7.709717560E0,-4.587360535E0,3.252735901E-1,8.977161268E0
9.605328958E0,7.876021729E0,-4.530029755E0,3.365002441E-1,9.092091083E0
9.615249958E0,7.994126129E0,-4.497247925E0,4.073030090E-1,9.181349966E0
9.625170958E0,8.118517456E0,-4.557422791E0,4.998106384E-1,9.323638713E0
9.635091958E0,8.251590729E0,-4.689148865E0,5.923182678E-1,9.509348430E0
9.645012958E0,8.303083649E0,-4.778962097E0,6.845265198E-1,9.604595429E0
9.654933958E0,8.310568085E0,-4.800217896E0,7.969427490E-1,9.630303810E0
9.664853958E0,8.290060730E0,-4.827610931E0,9.084608459E-1,9.636194027E0
9.674774958E0,8.185727692E0,-4.881798248E0,1.040336609E0,9.587512307E0
9.684695958E0,8.112679596E0,-4.961282959E0,1.212179260E0,9.586411079E0
9.694616958E0,8.057145081E0,-5.135370941E0,1.436263275E0,9.661908391E0
9.704537958E0,8.014483795E0,-5.324278107E0,1.611698456E0,9.755893592E0
9.714458958E0,8.038583679E0,-5.489085388E0,1.663490753E0,9.875023415E0
9.724379958E0,8.155191193E0,-5.652246094E0,1.709445190E0,1.006862613E1
9.734299958E0,8.423583069E0,-5.780229950E0,1.743574219E0,1.036377639E1
9.744220958E0,8.711135101E0,-5.918392639E0,1.770817566E0,1.067928092E1
9.754141958E0,9.026678925E0,-6.073769531E0,1.773062897E0,1.102340060E1
9.764062958E0,9.423803101E0,-6.179749146E0,1.756447449E0,1.140537031E1
9.773983958E0,9.815688171E0,-6.195167084E0,1.697769470E0,1.173073956E1
9.783904958E0,1.009934830E1,-6.207890625E0,1.659449158E0,1.197031802E1
9.793825958E0,1.030696655E1,-6.220464478E0,1.638343048E0,1.214956402E1
9.803746958E0,1.042132874E1,-6.209387512E0,1.624421997E0,1.223925376E1
9.813666958E0,1.046204407E1,-6.176006927E0,1.647174683E0,1.226012284E1
9.823587958E0,1.043944107E1,-6.236331482E0,1.657353516E0,1.227275767E1
9.833508958E0,1.041593994E1,-6.542295227E0,1.713187408E0,1.241887446E1
9.843429958E0,1.035307068E1,-6.918762360E0,1.820813599E0,1.258454239E1
9.853350958E0,1.020907013E1,-7.181316376E0,1.935026093E0,1.263094390E1
9.863271958E0,1.006072861E1,-7.271878052E0,2.048041077E0,1.258145233E1
9.873192958E0,1.002210892E1,-7.213200073E0,2.131268005E0,1.253057165E1
9.883113958E0,1.001672012E1,-7.159312134E0,2.145638123E0,1.249776761E1
9.893033958E0,1.003168900E1,-7.098688202E0,2.218536530E0,1.248791666E1
9.902954958E0,9.991123352E0,-6.881938934E0,2.375410309E0,1.236228957E1
9.912875958E0,9.905052338E0,-6.510112152E0,2.541564789E0,1.212234192E1
9.922796958E0,9.843380585E0,-6.127807159E0,2.549797668E0,1.187196825E1
9.932717958E0,9.768386536E0,-5.810167694E0,2.446213074E0,1.162597878E1
9.942638958E0,9.631870422E0,-5.642067261E0,2.324067078E0,1.140206729E1
9.952559958E0,9.398056641E0,-5.631589050E0,2.224973145E0,1.117983763E1
9.962480958E0,9.045839081E0,-5.675747223E0,2.196232910E0,1.090251119E1
9.972400958E0,8.589587860E0,-5.727240143E0,2.172881470E0,1.055005749E1
9.982321958E0,8.156538391E0,-5.768105164E0,2.106868744E0,1.020975277E1
9.992242958E0,7.789501648E0,-5.812413025E0,1.985022125E0,9.919717432E0
1.000216396E1,7.468269653E0,-5.946833496E0,1.791474609E0,9.713354803E0
1.001208496E1,7.310647430E0,-6.142476654E0,1.549577637E0,9.673508988E0
1.002200596E1,7.196434937E0,-6.330036621E0,1.294208679E0,9.671246844E0
1.003192696E1,7.053182831E0,-6.510112152E0,1.037342834E0,9.654275138E0
1.004184696E1,6.994055786E0,-6.655609589E0,8.405021667E-1,9.691253749E0
1.005176796E1,6.955885162E0,-6.785240021E0,7.536827087E-1,9.746376668E0
1.006168896E1,6.951394501E0,-6.877897339E0,7.470964050E-1,9.807421187E0
1.007160996E1,7.004234619E0,-6.803502045E0,8.099656677E-1,9.798111402E0
1.008153096E1,7.094347229E0,-6.629114685E0,8.945397949E-1,9.750647443E0
1.009145196E1,7.306007080E0,-6.456074524E0,1.094823303E0,9.811079236E0
1.010137296E1,7.644303589E0,-6.255491638E0,1.409319305E0,9.977611633E0
1.011129396E1,8.028704224E0,-5.974525909E0,1.716031494E0,1.015380793E1
1.012121396E1,8.270301819E0,-5.743705902E0,1.832788696E0,1.023460620E1
1.013113496E1,8.279732208E0,-5.600753174E0,1.805695038E0,1.015790018E1
1.014105596E1,8.126600647E0,-5.581742706E0,1.723366241E0,1.000837054E1
1.015097696E1,7.866591339E0,-5.652545471E0,1.548679504E0,9.809838827E0
1.016089796E1,7.708070984E0,-5.733527069E0,1.368454285E0,9.703626027E0
1.017081896E1,7.678282928E0,-5.788612518E0,1.355431366E0,9.710883472E0
1.018073996E1,7.675139465E0,-5.746250610E0,1.408720551E0,9.690802623E0
1.019066096E1,7.671397247E0,-5.717959442E0,1.525328064E0,9.688757485E0
1.020058096E1,7.671397247E0,-5.690716095E0,1.585802307E0,9.682425025E0
1.021050196E1,7.628436584E0,-5.624254303E0,1.569336548E0,9.606669474E0
1.022042296E1,7.473209381E0,-5.596861267E0,1.544338531E0,9.463545636E0
1.023034396E1,7.298822021E0,-5.582790527E0,1.522034912E0,9.314340731E0
1.024026496E1,7.296127625E0,-5.542673950E0,1.484463043E0,9.282151871E0
1.025018596E1,7.304210815E0,-5.550158386E0,1.533411255E0,9.300919515E0
1.026010696E1,7.161258087E0,-5.600603485E0,1.554667053E0,9.223197192E0
1.027002696E1,7.026987305E0,-5.658233643E0,1.579665070E0,9.159121151E0
1.027994796E1,6.934479675E0,-5.650449829E0,1.626517639E0,9.091762825E0
1.028986896E1,6.877747650E0,-5.597609711E0,1.673519897E0,9.024262632E0
1.029978996E1,6.885082397E0,-5.557044067E0,1.617835693E0,8.994581186E0
1.030971096E1,6.960076447E0,-5.549709320E0,1.528321838E0,9.032037717E0
1.031963158E1,6.921606445E0,-5.491779785E0,1.471290436E0,8.957286226E0
1.032955258E1,6.779402161E0,-5.453160095E0,1.396745453E0,8.811818572E0
1.033947358E1,6.642436981E0,-5.501659241E0,1.257385254E0,8.716148297E0
1.034939358E1,6.584956512E0,-5.513784027E0,1.156644745E0,8.666100255E0
1.035931458E1,6.580016785E0,-5.500761108E0,1.065484314E0,8.642352138E0
1.036923558E1,6.613996124E0,-5.529351654E0,1.015488281E0,8.680431492E0
1.037915658E1,6.657705231E0,-5.540578308E0,9.704319763E-1,8.715777943E0
1.038907758E1,6.728058929E0,-5.549260254E0,9.009764099E-1,8.767714914E0
1.039899858E1,6.805447998E0,-5.602100372E0,8.384065247E-1,8.854410005E0
1.040891958E1,6.885830841E0,-5.616769867E0,7.412585449E-1,8.916963291E0
1.041884058E1,6.917564850E0,-5.641318817E0,6.622229004E-1,8.950738552E0
1.042876058E1,6.969506836E0,-5.759123840E0,6.200106812E-1,9.062336685E0
1.043868158E1,7.041357422E0,-5.899232483E0,6.491999817E-1,9.208860888E0
1.044860258E1,7.089706879E0,-5.951324158E0,7.381150818E-1,9.285850350E0
1.045852358E1,7.275769958E0,-5.953419800E0,8.957373047E-1,9.443642365E0
1.046844458E1,7.516469421E0,-5.973029022E0,1.032403107E0,9.656098821E0
1.047836558E1,7.774233398E0,-6.101761322E0,1.026864624E0,9.936027733E0
1.048828658E1,7.997119904E0,-6.316864014E0,9.041198730E-1,1.023103760E1
1.049820658E1,8.063581696E0,-6.540349274E0,7.604187012E-1,1.041036767E1
1.050812758E1,8.010591888E0,-6.591842194E0,6.502478027E-1,1.039445949E1
1.051804858E1,7.929460602E0,-6.504573669E0,5.689668274E-1,1.027178404E1
1.052796958E1,7.966134338E0,-6.464906158E0,4.531077576E-1,1.026935317E1
1.053789058E1,8.122708740E0,-6.675518188E0,3.126997375E-1,1.051849426E1
1.054781158E1,8.239915009E0,-7.021748199E0,2.630030823E-1,1.082914206E1
1.055773258E1,8.298143921E0,-7.150630188E0,4.144880676E-1,1.096186594E1
1.056765258E1,8.396788788E0,-7.063511353E0,7.676037598E-1,1.099947590E1
1.057757358E1,8.481362915E0,-6.813082123E0,1.162781982E0,1.094091709E1
1.058749458E1,8.496930542E0,-6.462660828E0,1.505120087E0,1.078096471E1
1.059741558E1,8.478967896E0,-6.166875916E0,1.787133636E0,1.063565239E1
1.060733658E1,8.391399994E0,-5.966592407E0,1.971101074E0,1.048337056E1
1.061725758E1,8.327333221E0,-5.830525360E0,2.070045319E0,1.037422731E1
1.062717858E1,8.331973572E0,-5.817053375E0,2.063758392E0,1.036913652E1
1.063709958E1,8.273445282E0,-5.909860382E0,1.962868195E0,1.035515322E1
1.064701958E1,8.173602905E0,-5.985004120E0,1.783990173E0,1.028643183E1
1.065694058E1,8.109685822E0,-6.018384705E0,1.508113861E0,1.021089448E1
1.066686158E1,8.152047729E0,-6.015091553E0,1.172661438E0,1.019864420E1
1.067678258E1,8.173602905E0,-5.955365753E0,8.448431396E-1,1.014829669E1
1.068670358E1,8.131091309E0,-5.885610809E0,5.117857361E-1,1.005072063E1
1.069662458E1,8.107290802E0,-5.832621002E0,2.037263489E-1,9.989451253E0
1.070654558E1,8.081394653E0,-5.748795319E0,2.679428101E-2,9.917575565E0
1.071646658E1,7.945177917E0,-5.569617920E0,-8.681945801E-3,9.702915608E0
1.072638658E1,7.812104645E0,-5.340444489E0,-1.047821045E-2,9.463056383E0
1.073630758E1,7.694748688E0,-5.119653625E0,-2.395019531E-2,9.242325693E0
1.074622858E1,7.509434052E0,-4.934488678E0,5.688171387E-3,8.985589054E0
1.075614958E1,7.290888519E0,-4.825964355E0,7.813751221E-2,8.743745927E0
1.076607058E1,7.081324310E0,-4.766837311E0,1.883084106E-1,8.538345975E0
1.077599158E1,6.940317535E0,-4.730462952E0,3.468287659E-1,8.406282021E0
1.078591258E1,6.859785004E0,-4.716242523E0,5.533992004E-1,8.343011717E0
1.079583258E1,6.763684845E0,-4.698579254E0,7.246430969E-1,8.267356730E0
1.080575358E1,6.690037994E0,-4.681365051E0,8.351133728E-1,8.207874357E0
1.081567458E1,6.724017334E0,-4.716092834E0,9.499246216E-1,8.267786736E0
1.082559558E1,6.808741150E0,-4.732408905E0,1.100361786E0,8.364535023E0
1.083551658E1,6.853198700E0,-4.777614899E0,1.216969299E0,8.442330888E0
1.084543758E1,6.926695862E0,-4.855153656E0,1.273851013E0,8.554199494E0
1.085535858E1,7.018604736E0,-4.922214203E0,1.333876190E0,8.675726528E0
1.086527958E1,7.109465790E0,-4.952601013E0,1.393452301E0,8.775788849E0
1.087519958E1,7.207212524E0,-4.964725800E0,1.409618683E0,8.864504468E0
1.088512058E1,7.355554047E0,-5.002147980E0,1.445394287E0,9.011926786E0
1.089504158E1,7.481741638E0,-5.043462067E0,1.454974365E0,9.139470333E0
1.090496258E1,7.598199463E0,-5.049748993E0,1.404080200E0,9.230603511E0
1.091488358E1,7.755971375E0,-5.104684753E0,1.352587280E0,9.383090682E0
1.092480458E1,7.917036438E0,-5.213209076E0,1.311572571E0,9.569599649E0
1.093472558E1,8.153843994E0,-5.349425812E0,1.300046539E0,9.838274717E0
1.094464558E1,8.367000732E0,-5.442981262E0,1.349892883E0,1.007248515E1
1.095456658E1,8.531508636E0,-5.498366089E0,1.401535492E0,1.024611980E1
1.096448758E1,8.717721405E0,-5.533243561E0,1.446741486E0,1.042633741E1
1.097440858E1,8.887767792E0,-5.530848541E0,1.454674988E0,1.056876441E1
1.098432958E1,9.121132507E0,-5.565426636E0,1.434766388E0,1.078088987E1
1.099425058E1,9.369017029E0,-5.709726562E0,1.358125763E0,1.105549470E1
1.100417158E1,9.530531158E0,-5.914800110E0,1.265468445E0,1.128792695E1
1.101409258E1,9.598639526E0,-6.091582489E0,1.251697083E0,1.143713266E1
1.102401258E1,9.664652252E0,-6.280489655E0,1.297651520E0,1.159887723E1
1.103393358E1,9.777966614E0,-6.434519348E0,1.363813934E0,1.178438199E1
1.104385458E1,9.896969147E0,-6.518943787E0,1.469643860E0,1.194179549E1
1.105377558E1,1.002884491E1,-6.542444916E0,1.566043396E0,1.207616693E1
1.106369658E1,1.011536499E1,-6.500532074E0,1.595831451E0,1.212947666E1
1.107361758E1,1.011835876E1,-6.434070282E0,1.537602539E0,1.208894810E1
1.108353858E1,1.013093262E1,-6.393055573E0,1.451082458E0,1.206700441E1
1.109345858E1,1.012509476E1,-6.384822693E0,1.370549927E0,1.204831572E1
1.110337958E1,1.004830444E1,-6.427334290E0,1.317260742E0,1.200059266E1
1.111330058E1,9.913434906E0,-6.474635925E0,1.293310547E0,1.191090904E1
1.112322158E1,9.764943695E0,-6.445596313E0,1.355581055E0,1.177868572E1
1.113314258E1,9.644593964E0,-6.403384094E0,1.426832886E0,1.166436336E1
1.114306358E1,9.594448242E0,-6.510411530E0,1.507515106E0,1.169236918E1
1.115298458E1,9.557774506E0,-6.805148621E0,1.579814758E0,1.183878862E1
1.116290558E1,9.430389404E0,-7.077582092E0,1.692680054E0,1.191174120E1
1.117282558E1,9.290879517E0,-7.053182831E0,1.865570526E0,1.181305141E1
1.118274658E1,9.288185120E0,-6.750212860E0,2.102527771E0,1.167289079E1
1.119266758E1,9.366172943E0,-6.235583038E0,2.284249878E0,1.148152816E1
1.120258858E1,9.392069092E0,-5.681435394E0,2.332000580E0,1.122175996E1
1.121250958E1,9.372759247E0,-5.273982697E0,2.311642914E0,1.100032737E1
1.122243058E1,9.271270294E0,-5.081033936E0,2.204316101E0,1.079964667E1
1.123235158E1,9.096433868E0,-5.094206543E0,2.026485901E0,1.062086129E1
1.124227158E1,8.857530670E0,-5.180726624E0,1.854792938E0,1.042765720E1
1.125219258E1,8.564589844E0,-5.228627014E0,1.682351532E0,1.017452929E1
1.126211358E1,8.247998199E0,-5.266947327E0,1.539249115E0,9.906538057E0
1.127203458E1,7.861501923E0,-5.379213867E0,1.454076233E0,9.636051681E0
1.128195558E1,7.503296814E0,-5.553451538E0,1.390308838E0,9.437862350E0
1.129187658E1,7.252568207E0,-5.679489441E0,1.338815918E0,9.308532321E0
1.130179758E1,7.083719330E0,-5.769901428E0,1.259630585E0,9.222662915E0
1.131171858E1,6.993756409E0,-5.883814545E0,1.169368286E0,9.214082943E0
1.132163850E1,7.072193298E0,-5.982010345E0,1.144220581E0,9.333252732E0
1.133155950E1,7.253166962E0,-6.055657196E0,1.221160583E0,9.527363131E0
1.134148050E1,7.500303040E0,-6.112838287E0,1.339863739E0,9.768140685E0
1.135140150E1,7.789801025E0,-6.154751129E0,1.499282227E0,1.004040879E1
1.136132250E1,8.034542084E0,-6.187682648E0,1.648072815E0,1.027411442E1
1.137124350E1,8.043523407E0,-6.127657471E0,1.741777954E0,1.026061623E1
1.138116450E1,7.961194611E0,-6.017486572E0,1.775008850E0,1.013614427E1
1.139108450E1,7.940537567E0,-5.888305206E0,1.849404144E0,1.005706571E1
1.140100550E1,8.015681305E0,-5.748196564E0,1.949695587E0,1.005456232E1
1.141092650E1,8.173303528E0,-5.655838623E0,2.074236603E0,1.015351459E1
1.142084750E1,8.295299835E0,-5.575306091E0,2.182910614E0,1.023040254E1
1.143076850E1,8.301137695E0,-5.518723755E0,2.230661316E0,1.021474664E1
1.144068950E1,8.163124695E0,-5.546266479E0,2.220781860E0,1.011580687E1
1.145061050E1,7.885302429E0,-5.613027649E0,2.150577850E0,9.915092480E0
1.146053150E1,7.576644287E0,-5.627846832E0,2.058369598E0,9.659973293E0
1.147045150E1,7.289092255E0,-5.633535004E0,1.958377533E0,9.418217724E0
1.148037250E1,7.123386841E0,-5.650599518E0,1.851350098E0,9.278976893E0
1.149029350E1,7.042854309E0,-5.638923798E0,1.678908691E0,9.177036167E0
1.150021450E1,6.934629364E0,-5.586832123E0,1.531465302E0,9.035882002E0
1.151013550E1,6.809639282E0,-5.532644806E0,1.421294403E0,8.888274494E0
1.152005650E1,6.716083832E0,-5.468278656E0,1.324745178E0,8.761438425E0
1.152997750E1,6.682553558E0,-5.371430054E0,1.268611908E0,8.667073269E0
1.153989750E1,6.650669861E0,-5.229525146E0,1.203497314E0,8.545627457E0
1.154981850E1,6.643634491E0,-5.149441681E0,1.178199921E0,8.487802067E0
1.155973950E1,6.676266632E0,-5.159770203E0,1.213825836E0,8.524619513E0
1.156966050E1,6.630312195E0,-5.211712189E0,1.210233307E0,8.519838519E0
1.157958150E1,6.493945770E0,-5.260361023E0,1.197210388E0,8.442513990E0
1.158950250E1,6.392756195E0,-5.325774994E0,1.184037781E0,8.404353427E0
1.159942350E1,6.380481720E0,-5.405110016E0,1.189875641E0,8.446393627E0
1.160934450E1,6.401737518E0,-5.397475891E0,1.194665680E0,8.458263139E0
1.161926450E1,6.425088959E0,-5.354515228E0,1.179247742E0,8.446491976E0
1.162918550E1,6.469546509E0,-5.384153595E0,1.118923187E0,8.490944062E0
1.163910650E1,6.626569977E0,-5.444328461E0,1.033450928E0,8.638296294E0
1.164902750E1,6.755002899E0,-5.521567841E0,1.007255402E0,8.782501866E0
1.165894850E1,6.863078156E0,-5.675148468E0,1.035845947E0,8.965608107E0
1.166886950E1,6.981182556E0,-5.963448944E0,1.029409332E0,9.239010594E0
1.167879050E1,7.126380615E0,-6.244115295E0,9.924362183E-1,9.526762627E0
1.168871050E1,7.219187622E0,-6.406527557E0,1.037043457E0,9.707508661E0
1.169863150E1,7.258406067E0,-6.500981140E0,1.131347351E0,9.809544395E0
1.170855250E1,7.303612061E0,-6.564299469E0,1.194815369E0,9.892439558E0
1.171847350E1,7.332801361E0,-6.540798340E0,1.232387238E0,9.903070081E0
1.172839450E1,7.407346344E0,-6.459367676E0,1.328637085E0,9.917534327E0
1.173831550E1,7.543263702E0,-6.366560669E0,1.443298645E0,9.975822423E0
1.174823650E1,7.777676239E0,-6.394552460E0,1.520388336E0,1.018303145E1
1.175815650E1,8.052205353E0,-6.597680054E0,1.521585846E0,1.052058062E1
1.176807750E1,8.145910492E0,-6.850653992E0,1.411564636E0,1.073684463E1
1.177799850E1,8.129295044E0,-6.988068237E0,1.248403931E0,1.079245329E1
1.178791950E1,8.040679321E0,-6.969057770E0,1.170116730E0,1.070464681E1
1.179784050E1,7.954009552E0,-6.950047302E0,1.117426300E0,1.062158496E1
1.180776150E1,8.066874847E0,-7.207062836E0,9.921368408E-1,1.086280627E1
1.181768250E1,8.141120453E0,-7.512427826E0,8.497828674E-1,1.111020004E1
1.182760350E1,8.044870605E0,-7.436086578E0,7.979905701E-1,1.098417569E1
1.183752350E1,7.965834961E0,-6.981032867E0,8.158035278E-1,1.062331784E1
1.184744450E1,7.977211304E0,-6.536906433E0,8.960366821E-1,1.035229094E1
1.185736550E1,8.051456909E0,-6.222560120E0,1.052461395E0,1.023004828E1
1.186728650E1,8.162825317E0,-5.982908478E0,1.280437317E0,1.020129554E1
1.187720750E1,8.208330688E0,-5.783074036E0,1.545985107E0,1.015926710E1
1.188712850E1,8.254734192E0,-5.667364655E0,1.790426788E0,1.017178877E1
1.189704950E1,8.199199677E0,-5.640720062E0,1.939367065E0,1.013931668E1
1.190697050E1,7.942483521E0,-5.719755707E0,1.851350098E0,9.961232203E0
1.191689050E1,7.717052307E0,-5.884712677E0,1.548230438E0,9.827500043E0
1.192681150E1,7.693551178E0,-6.025270386E0,1.259331207E0,9.852945145E0
1.193673250E1,7.857160950E0,-6.157146149E0,1.014889526E0,1.003371455E1
1.194665350E1,8.113577728E0,-6.228547668E0,8.134085083E-1,1.026092506E1
1.195657450E1,8.333620148E0,-6.233188019E0,5.481600952E-1,1.042124451E1
1.196649550E1,8.458460541E0,-6.225703583E0,3.065625000E-1,1.050708905E1
1.197641650E1,8.524173889E0,-6.184838562E0,1.785786438E-1,1.053307452E1
1.198633650E1,8.505313110E0,-6.032754822E0,1.505868530E-1,1.042867001E1
1.199625750E1,8.313412170E0,-5.819897461E0,1.309776306E-1,1.014894987E1
1.200617850E1,8.040230255E0,-5.597460022E0,4.101470947E-2,9.796863960E0
1.201609950E1,7.757168884E0,-5.399122467E0,-1.556762695E-2,9.451160504E0
1.202602050E1,7.471712494E0,-5.188510437E0,1.227447510E-2,9.096553128E0
1.203594150E1,7.218289490E0,-5.010231171E0,6.062393188E-2,8.786910424E0
1.204586250E1,7.081174622E0,-4.857099609E0,1.125659180E-1,8.587614437E0
1.205578250E1,6.983278198E0,-4.750221863E0,2.405497742E-1,8.449180217E0
1.206570350E1,6.899153137E0,-4.735402679E0,3.585044861E-1,8.375612098E0
1.207562450E1,6.767277374E0,-4.742887115E0,4.743635559E-1,8.277441757E0
1.208554550E1,6.635401611E0,-4.760400696E0,6.008505249E-1,8.188466931E0
1.209546650E1,6.549779663E0,-4.803810425E0,7.354206848E-1,8.155798662E0
1.210538750E1,6.558311920E0,-4.837490387E0,8.214916992E-1,8.190703089E0
1.211530850E1,6.692133636E0,-4.844376068E0,8.952882385E-1,8.309884062E0
1.212522950E1,6.857988739E0,-4.852608948E0,9.357041931E-1,8.453127556E0
1.213514950E1,7.002737732E0,-4.866979065E0,9.560618591E-1,8.581367912E0
1.214507050E1,7.157366180E0,-4.887486420E0,9.509724426E-1,8.718931284E0
1.215499150E1,7.317533112E0,-4.936734009E0,9.364526367E-1,8.876630952E0
1.216491250E1,7.433691559E0,-4.979395294E0,9.574090576E-1,8.998376509E0
1.217483350E1,7.503147125E0,-5.012326813E0,9.976753235E-1,9.078325446E0
1.218475450E1,7.588469696E0,-5.091063080E0,9.690847778E-1,9.189282938E0
1.219467550E1,7.654482422E0,-5.172344055E0,9.282197571E-1,9.284709801E0
1.220459550E1,7.755971375E0,-5.201832733E0,9.163943481E-1,9.383705790E0
1.221451650E1,7.927664337E0,-5.234464874E0,8.884025574E-1,9.541317701E0
1.222443750E1,8.192014618E0,-5.337899780E0,8.655001831E-1,9.815873274E0
1.223435850E1,8.501720581E0,-5.454656982E0,8.481362915E-1,1.013665975E1
1.224427950E1,8.744964752E0,-5.563031616E0,8.527766418E-1,1.039946909E1
1.225420050E1,8.980125732E0,-5.704038391E0,8.472381592E-1,1.067223147E1
1.226412150E1,9.173822937E0,-5.857768707E0,7.807763672E-1,1.091247420E1
1.227404250E1,9.312285004E0,-6.027964783E0,7.122189331E-1,1.111585657E1
1.228396250E1,9.454788666E0,-6.204298096E0,7.098239136E-1,1.133093966E1
1.229388350E1,9.625433807E0,-6.347699890E0,7.902067566E-1,1.155710589E1
1.230380450E1,9.773475952E0,-6.490951996E0,9.253756714E-1,1.176901058E1
1.231372550E1,9.893825684E0,-6.614295502E0,1.081800385E0,1.195018760E1
1.232364683E1,9.944121094E0,-6.689139862E0,1.269659729E0,1.205164604E1
1.233356783E1,9.942624207E0,-6.721472626E0,1.386416931E0,1.208123016E1
1.234348883E1,9.934541016E0,-6.842870178E0,1.468596039E0,1.215223238E1
1.235340883E1,9.945318604E0,-7.041656799E0,1.517244873E0,1.227991550E1
1.236332983E1,9.959539032E0,-7.284002838E0,1.641336823E0,1.244761430E1
1.237325083E1,9.976902924E0,-7.471562805E0,1.793570251E0,1.259284467E1
1.238317183E1,1.006626709E1,-7.672894135E0,1.906734924E0,1.279994827E1
1.239309283E1,1.019380188E1,-7.962541809E0,2.007475433E0,1.308990552E1
1.240301383E1,1.023451721E1,-8.153843994E0,2.146985321E0,1.326046984E1
1.241293483E1,1.017314484E1,-8.022716675E0,2.307601318E0,1.315985876E1
1.242285583E1,1.007300308E1,-7.542066193E0,2.471510468E0,1.282406010E1
1.243277583E1,9.903705139E0,-6.802603912E0,2.677781525E0,1.230972418E1
1.244269683E1,9.718689880E0,-6.021528168E0,2.833757172E0,1.177887576E1
1.245261783E1,9.568402405E0,-5.420677643E0,2.922821960E0,1.137897003E1
1.246253883E1,9.380692749E0,-5.102140045E0,2.928210754E0,1.107265315E1
1.247245983E1,9.167985077E0,-5.123096466E0,2.844834137E0,1.088076969E1
1.248238083E1,8.803193665E0,-5.334007874E0,2.644850006E0,1.062746867E1
1.249230183E1,8.261170807E0,-5.445076904E0,2.307900696E0,1.015983323E1
1.250222283E1,7.792345734E0,-5.358556824E0,1.899250488E0,9.645824780E0
1.251214283E1,7.587272186E0,-5.194198608E0,1.544637909E0,9.323749497E0
1.252206383E1,7.542964325E0,-5.034331055E0,1.235830078E0,9.152490151E0
1.253198483E1,7.569758606E0,-4.954546967E0,9.361532593E-1,9.095337483E0
1.254190583E1,7.628286896E0,-5.008734283E0,6.695576477E-1,9.150217895E0
1.255182683E1,7.680977325E0,-5.179828491E0,4.490661621E-1,9.275219474E0
1.256174783E1,7.649991760E0,-5.402714996E0,2.680924988E-1,9.369289026E0
1.257166883E1,7.561376038E0,-5.636977844E0,1.297801208E-1,9.432219764E0
1.258158883E1,7.427853699E0,-5.850284271E0,4.041595459E-3,9.455096666E0
1.259150983E1,7.344327393E0,-6.078110504E0,-1.347198486E-3,9.533235231E0
1.260143083E1,7.287445679E0,-6.290818176E0,6.107299805E-2,9.627304283E0
1.261135183E1,7.231911163E0,-6.419999542E0,2.182461548E-1,9.672877782E0
1.262127283E1,7.212900696E0,-6.430477753E0,4.255650330E-1,9.672542901E0
1.263119383E1,7.216193848E0,-6.341862030E0,6.301895142E-1,9.627554543E0
1.264111483E1,7.281757507E0,-6.221661987E0,7.526348877E-1,9.607264416E0
1.265103583E1,7.394622803E0,-6.113586731E0,8.361611938E-1,9.630968521E0
1.266095583E1,7.496860199E0,-5.978268127E0,8.976832581E-1,9.630599040E0
1.267087683E1,7.565118256E0,-5.862858124E0,9.783654785E-1,9.620879305E0
1.268079783E1,7.626191254E0,-5.797294464E0,1.064586182E0,9.638504027E0
1.269071883E1,7.621850281E0,-5.750441895E0,1.082997894E0,9.609009737E0
1.270063983E1,7.454797668E0,-5.717360687E0,1.044827271E0,9.452718420E0
1.271056083E1,7.224726105E0,-5.699996796E0,9.683363342E-1,9.253340263E0
1.272048183E1,7.052584076E0,-5.636528778E0,9.101074219E-1,9.074012031E0
1.273040183E1,6.881190491E0,-5.548212433E0,8.316705322E-1,8.878351178E0
1.274032283E1,6.729256439E0,-5.495522003E0,7.253915405E-1,8.718362644E0
1.275024383E1,6.655609589E0,-5.474565582E0,6.454577637E-1,8.642026558E0
1.276016483E1,6.740483093E0,-5.462740173E0,6.469546509E-1,8.700240965E0
1.277008583E1,6.800657959E0,-5.400469666E0,7.593708801E-1,8.717262496E0
1.278000683E1,6.796766052E0,-5.340294800E0,8.840615845E-1,8.688863113E0
1.278992783E1,6.777755585E0,-5.340594177E0,9.967771912E-1,8.686396359E0
1.279984883E1,6.713389435E0,-5.375172272E0,1.109642487E0,8.671411713E0
1.280976883E1,6.601122894E0,-5.421426086E0,1.216220856E0,8.628202446E0
1.281968983E1,6.546037445E0,-5.439987488E0,1.254840546E0,8.603411817E0
1.282961083E1,6.587800598E0,-5.432503052E0,1.254391479E0,8.630452138E0
1.283953183E1,6.667734375E0,-5.392236786E0,1.166075134E0,8.654168387E0
1.284945283E1,6.769971771E0,-5.375771027E0,1.057850189E0,8.709218044E0
1.285937383E1,6.842570801E0,-5.432203674E0,9.939331055E-1,8.793037868E0
1.286929483E1,6.785240021E0,-5.436394958E0,9.183403015E-1,8.742838280E0
1.287921583E1,6.772067413E0,-5.486540680E0,8.598120117E-1,8.757985064E0
1.288913583E1,6.921905823E0,-5.635930023E0,8.619076538E-1,8.967684888E0
1.289905683E1,7.029831390E0,-5.776787109E0,9.093589783E-1,9.144218525E0
1.290897783E1,7.134014740E0,-5.946085052E0,9.556127930E-1,9.336128190E0
1.291889883E1,7.287146301E0,-6.172863464E0,1.015787659E0,9.604091271E0
1.292881983E1,7.424111481E0,-6.343209229E0,1.072369995E0,9.823630286E0
1.293874083E1,7.656578064E0,-6.481072540E0,1.097817078E0,1.009121852E1
1.294866183E1,7.938591614E0,-6.540648651E0,1.114432526E0,1.034617231E1
1.295858183E1,8.105793915E0,-6.489305420E0,1.121916962E0,1.044383442E1
1.296850283E1,8.264314270E0,-6.407874756E0,1.160386963E0,1.052170362E1
1.297842383E1,8.399632874E0,-6.368506622E0,1.131047974E0,1.060146115E1
1.298834483E1,8.432265015E0,-6.327940979E0,1.030008087E0,1.059277334E1
1.299826583E1,8.519683228E0,-6.453080750E0,8.973838806E-1,1.072532290E1
1.300818683E1,8.607101440E0,-6.793173523E0,7.261399841E-1,1.098893448E1
1.301810783E1,8.630303192E0,-7.189399567E0,5.843847656E-1,1.124771554E1
1.302802883E1,8.559949493E0,-7.440427551E0,5.511538696E-1,1.135501951E1
1.303794883E1,8.481063538E0,-7.484885101E0,5.813909912E-1,1.132651576E1
1.304786983E1,8.540190582E0,-7.557184753E0,5.581892395E-1,1.141741966E1
1.305779083E1,8.681796112E0,-7.892936554E0,4.779560852E-1,1.174310322E1
1.306771183E1,8.572822723E0,-8.114924927E0,5.400769043E-1,1.181680917E1
1.307763283E1,8.172704773E0,-7.735763397E0,8.053253174E-1,1.128200725E1
1.308755383E1,7.818990326E0,-6.974296875E0,1.199605408E0,1.054592242E1
1.309747483E1,7.691455536E0,-6.329437866E0,1.512155457E0,1.007506258E1
1.310739483E1,7.562274170E0,-5.960305481E0,1.786385193E0,9.793079398E0
1.311731583E1,7.307653656E0,-5.741161194E0,2.008972321E0,9.507823284E0
1.312723683E1,7.015760651E0,-5.535488892E0,2.217788086E0,9.207666304E0
1.313715783E1,6.826105042E0,-5.330714722E0,2.347717896E0,8.973517081E0
1.314707883E1,6.810687103E0,-5.273234253E0,2.298769684E0,8.914976184E0
1.315699983E1,6.813231812E0,-5.353018341E0,2.092798004E0,8.913738641E0
1.316692083E1,6.842570801E0,-5.470224609E0,1.749561768E0,8.933369959E0
1.317684183E1,6.968009949E0,-5.596412201E0,1.311722260E0,9.032917992E0
1.318676183E1,7.184908905E0,-5.657634888E0,8.831634521E-1,9.187585438E0
1.319668283E1,7.430997162E0,-5.652246094E0,4.959187317E-1,9.349520849E0
1.320660383E1,7.668852539E0,-5.692362671E0,1.374142456E-1,9.551605871E0
1.321652483E1,7.798482971E0,-5.722899170E0,-1.160087585E-1,9.673746409E0
1.322644583E1,7.791447601E0,-5.699547729E0,-2.628533936E-1,9.657152373E0
1.323636683E1,7.767647095E0,-5.683081970E0,-3.323089600E-1,9.630378565E0
1.324628783E1,7.709118805E0,-5.652695160E0,-2.591111755E-1,9.562981435E0
1.325620883E1,7.609126740E0,-5.541476440E0,-8.128097534E-2,9.413467877E0
1.326612883E1,7.500901794E0,-5.427713013E0,1.609153748E-1,9.260102053E0
1.327604983E1,7.366032257E0,-5.317542114E0,4.361929321E-1,9.095325702E0
1.328597083E1,7.206314392E0,-5.218747559E0,7.174580383E-1,8.926423653E0
1.329589183E1,7.051536255E0,-5.137017517E0,9.605525208E-1,8.777002545E0
1.330581283E1,6.935228119E0,-5.054988098E0,1.127904510E0,8.655776240E0
1.331573383E1,6.837631073E0,-4.941074982E0,1.216969299E0,8.523405126E0
1.332565421E1,6.700067139E0,-4.834646301E0,1.233285370E0,8.353783414E0
1.333557521E1,6.664441223E0,-4.739144897E0,1.201401672E0,8.265448394E0
1.334549521E1,6.622528381E0,-4.659211121E0,1.144370270E0,8.177757256E0
1.335541621E1,6.558760986E0,-4.627926178E0,1.030906219E0,8.093071977E0
1.336533721E1,6.605164490E0,-4.608766022E0,9.621990967E-1,8.111396260E0
1.337525821E1,6.749464417E0,-4.560416565E0,9.288185120E-1,8.198498215E0
1.338517921E1,6.897356873E0,-4.503834229E0,9.163943481E-1,8.288415602E0
1.339510021E1,7.021598511E0,-4.490661621E0,9.377998352E-1,8.387392680E0
1.340502121E1,7.166197815E0,-4.526886292E0,9.288185120E-1,8.527003838E0
1.341494121E1,7.390132141E0,-4.562212830E0,8.722361755E-1,8.728610136E0
1.342486221E1,7.679330750E0,-4.593946838E0,7.888595581E-1,8.983249285E0
1.343478321E1,7.983348541E0,-4.628824310E0,7.003935242E-1,9.254751186E0
1.344470421E1,8.233328705E0,-4.644391937E0,6.256988525E-1,9.473625340E0
1.345462521E1,8.407865753E0,-4.631967773E0,5.529501343E-1,9.615252770E0
1.346454621E1,8.449628906E0,-4.679419098E0,4.592449951E-1,9.669751688E0
1.347446721E1,8.505911865E0,-4.753215637E0,3.629951477E-1,9.750659518E0
1.348438821E1,8.590935059E0,-4.825515289E0,3.582051086E-1,9.859922611E0
1.349430821E1,8.726103973E0,-4.896916809E0,4.333488464E-1,1.001561161E1
1.350422921E1,8.917555847E0,-5.008883972E0,5.885760498E-1,1.024490814E1
1.351415021E1,9.183702393E0,-5.262456665E0,7.192543030E-1,1.060901346E1
1.352407121E1,9.474098511E0,-5.610333252E0,8.810678101E-1,1.104584367E1
1.353399221E1,9.796827393E0,-5.955665131E0,1.124910736E0,1.152012145E1
1.354391321E1,1.010428802E1,-6.245911560E0,1.267414398E0,1.194631269E1
1.355383421E1,1.036729111E1,-6.466552734E0,1.270258484E0,1.228456698E1
1.356375421E1,1.057236465E1,-6.509663086E0,1.319206696E0,1.248562831E1
1.357367521E1,1.064167053E1,-6.510261841E0,1.386267242E0,1.255190813E1
1.358359621E1,1.070109695E1,-6.628066864E0,1.462309113E0,1.267213851E1
1.359351721E1,1.078761703E1,-6.904242554E0,1.530118103E0,1.289893437E1
1.360343821E1,1.095152618E1,-7.374115448E0,1.595382385E0,1.329882511E1
1.361335921E1,1.117830460E1,-8.035290527E0,1.691931610E0,1.387022062E1
1.362328021E1,1.135748199E1,-8.734187164E0,1.760788422E0,1.443533160E1
1.363320121E1,1.145418091E1,-9.266929321E0,1.884880371E0,1.485351855E1
1.364312121E1,1.146031815E1,-9.369166718E0,2.102677460E0,1.495130193E1
1.365304221E1,1.135673355E1,-8.911717987E0,2.438279572E0,1.464033202E1
1.366296321E1,1.104702759E1,-7.869884491E0,2.805466003E0,1.385072344E1
1.367288421E1,1.069525909E1,-6.594386902E0,3.073558502E0,1.293527223E1
1.368280521E1,1.045770309E1,-5.607788544E0,3.172353058E0,1.228310508E1
1.369272621E1,1.015802628E1,-5.071753235E0,3.171454926E0,1.178839705E1
1.370264721E1,9.660311279E0,-4.929548950E0,3.149750061E0,1.129349336E1
1.371256821E1,8.864116974E0,-5.074747009E0,3.062182159E0,1.066314149E1
1.372248821E1,7.974965973E0,-5.242248688E0,2.821482697E0,9.951985640E0
1.373240921E1,7.152426453E0,-5.217250671E0,2.516417084E0,9.203763560E0
1.374233021E1,6.459517365E0,-5.221591644E0,2.208058319E0,8.594527644E0
1.375225121E1,5.971831512E0,-5.280119934E0,1.915267181E0,8.198212397E0
1.376217221E1,5.746699677E0,-5.377567291E0,1.655108185E0,8.042522630E0
1.377209321E1,5.806425476E0,-5.520669708E0,1.366358643E0,8.127687665E0
1.378201421E1,6.070177002E0,-5.617518311E0,1.073417816E0,8.340011188E0
1.379193421E1,6.390211487E0,-5.711971893E0,8.018824768E-1,8.608393652E0
1.380185521E1,6.696624298E0,-5.822292480E0,6.194119263E-1,8.895366089E0
1.381177621E1,6.955436096E0,-5.945935364E0,4.975653076E-1,9.164049862E0
1.382169721E1,7.217990112E0,-6.116131439E0,4.402345276E-1,9.471021670E0
1.383161821E1,7.449259186E0,-6.243666229E0,4.559518433E-1,9.730504739E0
1.384153921E1,7.608977051E0,-6.299051056E0,5.917195129E-1,9.895691383E0
1.385146021E1,7.674241333E0,-6.283333740E0,7.575746155E-1,9.947270089E0
1.386138121E1,7.645052032E0,-6.223308563E0,9.259744263E-1,9.901202891E0
1.387130121E1,7.589367828E0,-6.137237549E0,1.033301239E0,9.814881569E0
1.388122221E1,7.525600433E0,-6.130351868E0,1.063688049E0,9.764594624E0
1.389114321E1,7.287445679E0,-6.044131165E0,1.147513733E0,9.537042195E0
1.390106421E1,7.122039642E0,-5.921087036E0,1.194515991E0,9.338607434E0
1.391098521E1,7.109166412E0,-5.887556763E0,1.166224823E0,9.303958945E0
1.392090621E1,7.146588593E0,-5.855673065E0,1.176253967E0,9.313764489E0
1.393082721E1,7.113956451E0,-5.737868042E0,1.204395447E0,9.218572257E0
1.394074821E1,6.985673218E0,-5.612428894E0,1.180145874E0,9.038347896E0
1.395066821E1,6.984625397E0,-5.656138000E0,1.158441010E0,9.061946512E0
1.396058921E1,6.893315277E0,-5.657934265E0,1.076261902E0,8.982669722E0
1.397051021E1,6.660549316E0,-5.587730255E0,9.687854004E-1,8.747810683E0
1.398043121E1,6.449937286E0,-5.557193756E0,9.548643494E-1,8.567138342E0
1.399035221E1,6.339467010E0,-5.596711578E0,9.472302246E-1,8.509363523E0
1.400027321E1,6.273005219E0,-5.581143951E0,8.325686646E-1,8.437590465E0
1.401019421E1,6.291416931E0,-5.597010956E0,7.379653931E-1,8.452990687E0
1.402011421E1,6.347999268E0,-5.516777802E0,7.316784668E-1,8.441995344E0
1.403003521E1,6.503675537E0,-5.554948425E0,7.414082336E-1,8.585157754E0
1.403995621E1,6.730004883E0,-5.650898895E0,8.283773804E-1,8.826767989E0
1.404987721E1,6.882687378E0,-5.673352203E0,9.740245056E-1,8.972571231E0
1.405979821E1,6.915768585E0,-5.675148468E0,1.109343109E0,9.014754982E0
1.406971921E1,6.838529205E0,-5.738915863E0,1.076561279E0,8.992197794E0
1.407964021E1,6.756050720E0,-5.827531586E0,9.651928711E-1,8.974182024E0
1.408956121E1,6.706503754E0,-5.937552795E0,9.210346985E-1,9.004445053E0
1.409948121E1,6.709946594E0,-6.030509491E0,9.735754395E-1,9.074044145E0
1.410940221E1,6.739285583E0,-6.134842529E0,1.084045715E0,9.177658642E0
1.411932321E1,6.796915741E0,-6.293662262E0,1.205443268E0,9.341377935E0
1.412924421E1,6.886429596E0,-6.508016510E0,1.344504089E0,9.569999097E0
1.413916521E1,7.016658783E0,-6.685247955E0,1.478924561E0,9.803736969E0
1.414908621E1,7.195985870E0,-6.815776520E0,1.552272034E0,1.003227645E1
1.415900721E1,7.368876343E0,-6.954238586E0,1.550625458E0,1.025018108E1
1.416892821E1,7.517367554E0,-7.051685944E0,1.542691956E0,1.042194742E1
1.417884821E1,7.643255768E0,-7.048991547E0,1.563947754E0,1.051444593E1
1.418876921E1,7.777227173E0,-6.963070221E0,1.575773163E0,1.055711468E1
1.419869021E1,8.001161499E0,-6.944359131E0,1.558409271E0,1.070847088E1
1.420861121E1,8.278085632E0,-7.073091431E0,1.491049347E0,1.098992958E1
1.421853221E1,8.546926575E0,-7.234306183E0,1.362017670E0,1.128008120E1
1.422845321E1,8.738827515E0,-7.559579773E0,1.113384705E0,1.160835812E1
1.423837421E1,8.733139343E0,-7.964936829E0,8.590635681E-1,1.185098864E1
1.424829421E1,8.561895447E0,-8.173004150E0,7.649093628E-1,1.186124516E1
1.425821521E1,8.329728241E0,-8.108188934E0,7.584727478E-1,1.164913650E1
1.426813621E1,8.240962830E0,-8.134534149E0,7.387138367E-1,1.160300876E1
1.427805721E1,8.335117035E0,-8.450527039E0,7.439529419E-1,1.189281502E1
1.428797821E1,8.341403961E0,-8.700956268E0,8.367599487E-1,1.208245949E1
1.429789921E1,8.079897766E0,-8.324189758E0,1.128802643E0,1.165551708E1
1.430782021E1,7.787705383E0,-7.432643738E0,1.566492462E0,1.087871531E1
1.431774021E1,7.598648529E0,-6.519991608E0,1.996398468E0,1.020957183E1
1.432766096E1,7.450456696E0,-5.904321899E0,2.275717621E0,9.774927762E0
1.433758196E1,7.307653656E0,-5.620811462E0,2.342029724E0,9.512119989E0
1.434750296E1,7.091652832E0,-5.445975037E0,2.362387390E0,9.248300285E0
1.435742396E1,6.863826599E0,-5.267097015E0,2.343975677E0,8.963740766E0
1.436734496E1,6.821913757E0,-5.249733124E0,2.197729797E0,8.884155641E0
1.437726596E1,6.923702087E0,-5.300627289E0,1.963916016E0,8.938191448E0
1.438718696E1,7.076983337E0,-5.313201141E0,1.663790131E0,9.004554244E0
1.439710696E1,7.239844666E0,-5.353018341E0,1.243164825E0,9.089313226E0
1.440702796E1,7.432793427E0,-5.431455231E0,7.915539551E-1,9.239787969E0
1.441694896E1,7.564519501E0,-5.551655273E0,4.144880676E-1,9.392264472E0
1.442686996E1,7.726183319E0,-5.687123566E0,1.477427673E-1,9.594743929E0
1.443679096E1,7.907156982E0,-5.834716644E0,2.499801636E-2,9.826885303E0
1.444671196E1,7.979456635E0,-5.912255402E0,-5.388793945E-3,9.931088619E0
1.445663296E1,7.976313171E0,-5.925428009E0,-5.448669434E-2,9.936560657E0
1.446655296E1,7.871680756E0,-5.873785400E0,-6.212081909E-2,9.821841571E0
1.447647396E1,7.648345184E0,-5.750292206E0,4.790039062E-3,9.568859256E0
1.448639496E1,7.435038757E0,-5.644911346E0,1.538800049E-1,9.336407472E0
1.449631596E1,7.241640930E0,-5.535638580E0,3.620970154E-1,9.122267925E0
1.450623696E1,7.083869019E0,-5.414091339E0,5.357359314E-1,8.931998561E0
1.451615796E1,7.053781586E0,-5.353916473E0,7.372169495E-1,8.886154685E0
1.452607896E1,7.091802521E0,-5.309458923E0,9.313632202E-1,8.907943337E0
1.453599996E1,7.099137268E0,-5.237458649E0,1.002615051E0,8.878849024E0
1.454591996E1,7.045249329E0,-5.108127594E0,9.520202637E-1,8.754133207E0
1.455584096E1,6.968459015E0,-4.952002258E0,8.749305725E-1,8.593442320E0
1.456576196E1,6.945107574E0,-4.812791748E0,7.945477295E-1,8.486977656E0
1.457568296E1,6.982829132E0,-4.710105286E0,7.376660156E-1,8.455125407E0
1.458560396E1,7.020700378E0,-4.605772247E0,7.361691284E-1,8.428838401E0
1.459552496E1,7.057374115E0,-4.552483063E0,7.415579224E-1,8.430986869E0
1.460544596E1,7.129673767E0,-4.558470612E0,7.554789734E-1,8.496037360E0
1.461536596E1,7.365583191E0,-4.580923920E0,7.756869507E-1,8.708522834E0
1.462528696E1,7.591762848E0,-4.533771973E0,7.679031372E-1,8.875788791E0
1.463520796E1,7.720195770E0,-4.510570221E0,7.173083496E-1,8.970016595E0
1.464512896E1,7.858508148E0,-4.568499756E0,6.948550415E-1,9.116477602E0
1.465504996E1,7.940537567E0,-4.607718201E0,6.915618896E-1,9.206598814E0
1.466497096E1,8.042774963E0,-4.594994659E0,6.897656250E-1,9.288486510E0
1.467489196E1,8.184081116E0,-4.588707733E0,7.170089722E-1,9.410075676E0
1.468481196E1,8.296497345E0,-4.576732635E0,7.623646545E-1,9.505764024E0
1.469473296E1,8.417595520E0,-4.566104736E0,8.593629456E-1,9.614766324E0
1.470465396E1,8.490942993E0,-4.610262909E0,9.575587463E-1,9.709148045E0
1.471457496E1,8.533753967E0,-4.742587738E0,1.013242950E0,9.815485546E0
1.472449596E1,8.584947510E0,-4.898114319E0,1.060394897E0,9.940688355E0
1.473441696E1,8.645721130E0,-5.026397552E0,1.132095795E0,1.006453214E1
1.474433796E1,8.730295258E0,-5.130580902E0,1.194216614E0,1.019642432E1
1.475425896E1,8.906478882E0,-5.236710205E0,1.236578522E0,1.040565357E1
1.476417896E1,9.081464996E0,-5.391039276E0,1.278940430E0,1.063823292E1
1.477409996E1,9.245823212E0,-5.631289673E0,1.325044556E0,1.090653076E1
1.478402096E1,9.395212555E0,-5.946534119E0,1.325044556E0,1.119763502E1
1.479394196E1,9.517508240E0,-6.230942688E0,1.334624634E0,1.145376937E1
1.480386296E1,9.602681122E0,-6.393804016E0,1.392703857E0,1.162032007E1
1.481378396E1,9.689949646E0,-6.375841370E0,1.535506897E0,1.170060933E1
1.482370496E1,9.781708832E0,-6.322851562E0,1.674717407E0,1.176711341E1
1.483362496E1,9.846074982E0,-6.316864014E0,1.814676361E0,1.183811699E1
1.484354596E1,9.841584320E0,-6.411167908E0,1.926044769E0,1.190249992E1
1.485346696E1,9.776769104E0,-6.685098267E0,1.980681152E0,1.200828259E1
1.486338796E1,9.610165558E0,-7.018455048E0,2.011067963E0,1.206890168E1
1.487330896E1,9.414223022E0,-7.253166962E0,2.077829132E0,1.206455138E1
1.488322996E1,9.283694458E0,-7.376061401E0,2.157164154E0,1.205183064E1
1.489315096E1,9.262288971E0,-7.517816620E0,2.207459564E0,1.213179465E1
1.490307096E1,9.328002319E0,-7.791746979E0,2.266885986E0,1.236372599E1
1.491299196E1,9.308692474E0,-7.942333832E0,2.437381439E0,1.247690869E1
1.492291296E1,9.281000061E0,-7.700586548E0,2.685265961E0,1.235502524E1
1.493283396E1,9.308991852E0,-7.083120575E0,2.936892700E0,1.206040070E1
1.494275496E1,9.367520142E0,-6.311924286E0,3.073259125E0,1.170622670E1
1.495267596E1,9.410929871E0,-5.722300415E0,3.053051147E0,1.142941137E1
1.496259696E1,9.416468353E0,-5.421126709E0,2.970722351E0,1.126426573E1
1.497251696E1,9.344617767E0,-5.369783478E0,2.861000519E0,1.115086453E1
1.498243796E1,9.155860291E0,-5.476960602E0,2.662812653E0,1.099624692E1
1.499235896E1,8.729696503E0,-5.522166595E0,2.403252411E0,1.060554322E1
1.500227996E1,8.211174774E0,-5.496869202E0,2.107617188E0,1.010351485E1
1.501220096E1,7.820786591E0,-5.465733948E0,1.832040253E0,9.715725499E0
1.502212196E1,7.576943665E0,-5.480852509E0,1.630110168E0,9.492474845E0
1.503204296E1,7.470365295E0,-5.552254028E0,1.472487946E0,9.423486785E0
1.504196396E1,7.426506500E0,-5.674250336E0,1.366807709E0,9.445542810E0
1.505188396E1,7.351512451E0,-5.790259094E0,1.289418640E0,9.446398050E0
1.506180496E1,7.284751282E0,-5.876330109E0,1.210083618E0,9.437327966E0
1.507172596E1,7.185956726E0,-5.920338593E0,1.094523926E0,9.374772837E0
1.508164696E1,7.069349213E0,-5.986950073E0,9.717791748E-1,9.314699364E0
1.509156796E1,6.986271973E0,-6.058501282E0,9.325607300E-1,9.294251093E0
1.510148896E1,6.912026367E0,-6.103557587E0,9.502239990E-1,9.269975694E0
1.511140996E1,6.878047028E0,-6.061644745E0,1.015637970E0,9.224022355E0
1.512132996E1,6.889872437E0,-5.962401123E0,1.137334900E0,9.182270962E0
1.513125096E1,7.040309601E0,-5.819298706E0,1.293909302E0,9.225204496E0
1.514117196E1,7.235653381E0,-5.657335510E0,1.390009460E0,9.289362262E0
1.515109296E1,7.349117432E0,-5.515430603E0,1.409468994E0,9.296026280E0
1.516101396E1,7.379354553E0,-5.421126709E0,1.447040863E0,9.270243561E0
1.517093496E1,7.336693268E0,-5.409450989E0,1.468146973E0,9.232804755E0
1.518085596E1,7.191944275E0,-5.481002197E0,1.406774597E0,9.151200047E0
1.519077596E1,6.983278198E0,-5.466482391E0,1.363514557E0,8.972612556E0
1.520069696E1,6.751709747E0,-5.538332977E0,1.150357819E0,8.808066745E0
1.521061796E1,6.653813324E0,-5.638774109E0,1.012344818E0,8.780310201E0
1.522053896E1,6.582112427E0,-5.463638306E0,1.026415558E0,8.615629776E0
1.523045996E1,6.531517639E0,-5.375022583E0,9.940827942E-1,8.517029473E0
1.524038096E1,6.706054688E0,-5.443580017E0,9.701325989E-1,8.691656352E0
1.525030196E1,6.762936401E0,-5.437592468E0,1.091979218E0,8.746264301E0
1.526022296E1,6.635551300E0,-5.391039276E0,1.175954590E0,8.629989266E0
1.527014296E1,6.530320129E0,-5.384902039E0,1.153501282E0,8.542412784E0
1.528006396E1,6.495742035E0,-5.404361572E0,1.126707001E0,8.524743823E0
1.528998496E1,6.543941803E0,-5.411396942E0,1.114731903E0,8.564404148E0
1.529990596E1,6.549180908E0,-5.384303284E0,1.150657196E0,8.556079967E0
1.530982696E1,6.448440399E0,-5.356161804E0,1.194965057E0,8.467514059E0
1.531974796E1,6.444099426E0,-5.411396942E0,1.186283112E0,8.498052830E0
1.532966996E1,6.553072815E0,-5.508993988E0,1.175655212E0,8.641408638E0
1.533958996E1,6.663243713E0,-5.539979553E0,1.240769806E0,8.753839155E0
1.534951096E1,6.659950562E0,-5.547164612E0,1.290616150E0,8.763085459E0
1.535943196E1,6.634204102E0,-5.588329010E0,1.285975800E0,8.769026111E0
1.536935296E1,6.691983948E0,-5.613476715E0,1.199455719E0,8.816601613E0
1.537927396E1,6.785240021E0,-5.616919556E0,1.055754547E0,8.871521014E0
1.538919496E1,6.873256989E0,-5.712570648E0,9.574090576E-1,8.988423507E0
1.539911596E1,6.940916290E0,-5.824088745E0,9.226812744E-1,9.107561111E0
1.540903596E1,6.988217926E0,-5.944887543E0,9.502239990E-1,9.223871385E0
1.541895696E1,7.127278748E0,-6.174210663E0,9.846524048E-1,9.480955649E0
1.542887796E1,7.328011322E0,-6.411616974E0,1.028211823E0,9.791108298E0
1.543879896E1,7.550598450E0,-6.637197876E0,1.074166260E0,1.011028020E1
1.544871996E1,7.694000244E0,-6.841972046E0,1.135838013E0,1.035858819E1
1.545864096E1,7.789351959E0,-6.971003723E0,1.113833771E0,1.051235095E1
1.546856196E1,7.911947021E0,-7.072342987E0,1.125509491E0,1.067163121E1
1.547848196E1,7.970325623E0,-7.072193298E0,1.174906769E0,1.072018724E1
1.548840296E1,7.998766479E0,-6.923552399E0,1.196911011E0,1.064652239E1
1.549832396E1,8.072862396E0,-6.847959595E0,1.152004395E0,1.064860423E1
1.550824496E1,8.173004150E0,-6.962621155E0,1.029109955E0,1.078587769E1
1.551816596E1,8.189769287E0,-7.172035675E0,8.687933350E-1,1.092086162E1
1.552808696E1,8.088729401E0,-7.347770233E0,8.030799866E-1,1.095729018E1
1.553800796E1,7.916437683E0,-7.325017548E0,7.649093628E-1,1.081253689E1
1.554792896E1,7.750881958E0,-7.116052094E0,7.044351196E-1,1.054564353E1
1.555784896E1,7.794890442E0,-6.937922516E0,7.107220459E-1,1.045945561E1
1.556776996E1,8.043074341E0,-7.057074738E0,7.478448486E-1,1.072625846E1
1.557769096E1,8.261619873E0,-7.347770233E0,7.960446167E-1,1.108502491E1
1.558761196E1,8.326584778E0,-7.383096771E0,9.144483948E-1,1.116594590E1
1.559753296E1,8.245752869E0,-7.013814697E0,1.076411591E0,1.087863497E1
1.560745396E1,8.224946136E0,-6.622229004E0,1.268611908E0,1.063546107E1
1.561737496E1,8.186925201E0,-6.418053589E0,1.552272034E0,1.051792302E1
1.562729496E1,8.081095276E0,-6.238127747E0,1.888921967E0,1.038202123E1
1.563721596E1,8.005652161E0,-6.027964783E0,2.154469757E0,1.025029589E1
1.564713696E1,8.084837494E0,-5.940845947E0,2.315235443E0,1.029653160E1
1.565705796E1,8.309520264E0,-5.900729370E0,2.437381439E0,1.047891036E1
1.566697896E1,8.515791321E0,-5.787115631E0,2.481240234E0,1.059084332E1
1.567689996E1,8.603658600E0,-5.738915863E0,2.300565948E0,1.059484310E1
1.568682096E1,8.592132568E0,-5.823340302E0,1.958377533E0,1.056273056E1
1.569674196E1,8.540639648E0,-5.835914154E0,1.652862854E0,1.047532220E1
1.570666196E1,8.451874237E0,-5.840853882E0,1.359173584E0,1.036325745E1
1.571658296E1,8.441845093E0,-5.879174194E0,1.013392639E0,1.033713705E1
1.572650396E1,8.413553925E0,-5.875881042E0,7.276368713E-1,1.028801842E1
1.573642496E1,8.313112793E0,-5.789360962E0,4.951702881E-1,1.014247200E1
1.574634596E1,8.146658936E0,-5.605992279E0,3.734733582E-1,9.896195410E0
1.575626696E1,7.955955505E0,-5.375471649E0,2.498304749E-1,9.604964275E0
1.576618796E1,7.789202271E0,-5.188809814E0,1.698966980E-1,9.360784379E0
1.577610796E1,7.550748138E0,-4.985682220E0,1.800755310E-1,9.050041539E0
1.578602896E1,7.298223267E0,-4.814737701E0,2.215393066E-1,8.746132954E0
1.579594996E1,7.104825439E0,-4.707410889E0,2.392025757E-1,8.526164417E0
1.580587096E1,6.961872711E0,-4.643643494E0,2.267784119E-1,8.371530624E0
1.581579196E1,6.879394226E0,-4.584666138E0,2.769241333E-1,8.271754076E0
1.582571296E1,6.778504028E0,-4.576882324E0,3.608995056E-1,8.186954081E0
1.583563396E1,6.681954803E0,-4.641098785E0,3.583547974E-1,8.143508832E0
1.584555396E1,6.571484528E0,-4.692442017E0,4.270619202E-1,8.086148827E0
1.585547496E1,6.552623749E0,-4.715045013E0,5.712121582E-1,8.092886432E0
1.586539596E1,6.588099976E0,-4.743186493E0,7.550299072E-1,8.152971824E0
1.587531696E1,6.735693054E0,-4.726421356E0,9.255253601E-1,8.280411641E0
1.588523796E1,6.969506836E0,-4.672683105E0,1.099313965E0,8.462652311E0
1.589515896E1,7.189249878E0,-4.633764038E0,1.228645020E0,8.640986723E0
1.590507996E1,7.368576965E0,-4.592599640E0,1.306782532E0,8.780408791E0
1.591500096E1,7.549700317E0,-4.608167267E0,1.318757629E0,8.942723418E0
1.592492096E1,7.715555420E0,-4.634961548E0,1.277293854E0,9.090882442E0
1.593484196E1,7.887996826E0,-4.620142365E0,1.226848755E0,9.223414079E0
1.594476296E1,8.049211578E0,-4.610412598E0,1.181942139E0,9.351080075E0
1.595468396E1,8.250093842E0,-4.641547852E0,1.163979492E0,9.537445314E0
1.596460496E1,8.430618439E0,-4.668641510E0,1.172511749E0,9.708054625E0
1.597452596E1,8.489146729E0,-4.693938904E0,1.128652954E0,9.765886140E0
1.598444696E1,8.554261322E0,-4.771777039E0,9.848020935E-1,9.844545598E0
1.599436696E1,8.583001556E0,-4.859195251E0,8.385562134E-1,9.898629740E0
1.600428796E1,8.588090973E0,-4.935237122E0,6.840774536E-1,9.928737783E0
1.601420896E1,8.662037201E0,-5.016667786E0,5.680686951E-1,1.002599353E1
1.602412996E1,8.769064636E0,-5.181774445E0,4.936734009E-1,1.019759748E1
1.603405096E1,8.899742889E0,-5.403164062E0,4.628375244E-1,1.042179562E1
1.604397196E1,9.132359161E0,-5.684578857E0,4.918771362E-1,1.076830366E1
1.605389296E1,9.356443176E0,-6.020330658E0,6.138734436E-1,1.114290136E1
1.606381296E1,9.512269135E0,-6.318959656E0,7.732919312E-1,1.144598164E1
1.607373396E1,9.648336182E0,-6.519243164E0,9.554631042E-1,1.168348545E1
1.608365496E1,9.747879181E0,-6.567293243E0,1.177601166E0,1.181258793E1
1.609357596E1,9.763895874E0,-6.468498688E0,1.391506348E0,1.179455077E1
1.610349696E1,9.757908325E0,-6.354735260E0,1.589245148E0,1.175266503E1
1.611341796E1,9.671837311E0,-6.362968140E0,1.720522156E0,1.170435803E1
1.612333896E1,9.579928436E0,-6.578669586E0,1.759291534E0,1.175368151E1
1.613325996E1,9.541308746E0,-6.927294617E0,1.770817566E0,1.192307755E1
1.614317996E1,9.461674347E0,-7.184160461E0,1.791324921E0,1.201433677E1
1.615310096E1,9.367669830E0,-7.274273071E0,1.777403870E0,1.199280832E1
1.616302196E1,9.421707458E0,-7.393874359E0,1.737137604E0,1.210188401E1
1.617294296E1,9.574539642E0,-7.661817169E0,1.726360016E0,1.238368163E1
1.618286396E1,9.753567352E0,-7.927065582E0,1.783690796E0,1.269456568E1
1.619278496E1,9.752070465E0,-7.881560211E0,1.983375549E0,1.269470946E1
1.620270596E1,9.607022095E0,-7.372468872E0,2.296823730E0,1.232572797E1
1.621262596E1,9.448202362E0,-6.705755310E0,2.593357086E0,1.187270749E1
1.622254696E1,9.364226990E0,-6.186335449E0,2.835104370E0,1.157572072E1
1.623246796E1,9.201665039E0,-5.904621277E0,3.010988617E0,1.134024887E1
1.624238896E1,8.914861450E0,-5.853577423E0,3.074157257E0,1.109907952E1
1.625230996E1,8.424780579E0,-5.887706451E0,2.984793091E0,1.070285031E1
1.626223096E1,7.923772430E0,-5.847739563E0,2.740501099E0,1.022216092E1
1.627215196E1,7.534881134E0,-5.746250610E0,2.406545563E0,9.776773053E0
1.628207296E1,7.193441162E0,-5.726491699E0,2.032473450E0,9.416435167E0
1.629199296E1,6.948101349E0,-5.757477264E0,1.645228729E0,9.172318920E0
1.630191396E1,6.839876404E0,-5.776936798E0,1.299298096E0,9.046827263E0
1.631183496E1,6.820416870E0,-5.772146759E0,9.963281250E-1,8.990463515E0
1.632175596E1,6.816824341E0,-5.764063568E0,6.954537964E-1,8.954171033E0
1.633167621E1,6.843468933E0,-5.785169678E0,4.330494690E-1,8.971554329E0
1.634159721E1,6.852599945E0,-5.826932831E0,2.224374390E-1,8.997819216E0
1.635151821E1,6.810687103E0,-5.888903961E0,5.508544922E-2,9.003759386E0
1.636143821E1,6.820267181E0,-5.885760498E0,-6.002517700E-2,9.008985741E0
1.637135921E1,6.895111542E0,-5.813460846E0,-1.342707825E-1,9.019807028E0
1.638128021E1,7.002887421E0,-5.721701660E0,-1.520837402E-1,9.044414386E0
1.639120121E1,7.142696686E0,-5.599705353E0,-6.975494385E-2,9.076325343E0
1.640112221E1,7.285350037E0,-5.474266205E0,1.242416382E-1,9.113690340E0
1.641104321E1,7.342531128E0,-5.374573517E0,3.245251465E-1,9.105169983E0
1.642096421E1,7.312743073E0,-5.331014099E0,4.992118835E-1,9.063395339E0
1.643088421E1,7.243736572E0,-5.319188690E0,7.521858215E-1,9.018385186E0
1.644080521E1,7.120093689E0,-5.318739624E0,9.747729492E-1,8.940632395E0
1.645072621E1,6.921307068E0,-5.321883087E0,1.093176727E0,8.798975308E0
1.646064721E1,6.768774261E0,-5.347779236E0,1.199904785E0,8.709467220E0
1.647056821E1,6.655010834E0,-5.413642273E0,1.323248291E0,8.680304021E0
1.648048921E1,6.595883789E0,-5.500012665E0,1.387165375E0,8.699428145E0
1.649041021E1,6.602919159E0,-5.508844299E0,1.387015686E0,8.710322580E0
1.650033121E1,6.605014801E0,-5.498216400E0,1.324445801E0,8.695444830E0
1.651025121E1,6.613696747E0,-5.540129242E0,1.246757355E0,8.717133736E0
1.652017221E1,6.572532349E0,-5.549859009E0,1.243464203E0,8.691681064E0
1.653009321E1,6.538253632E0,-5.556744690E0,1.265468445E0,8.673383566E0
1.654001421E1,6.556365967E0,-5.616620178E0,1.327888641E0,8.734737842E0
1.654993521E1,6.626270599E0,-5.652844849E0,1.415157166E0,8.824102603E0
1.655985621E1,6.758745117E0,-5.739813995E0,1.469943237E0,8.988149608E0
1.656977721E1,6.841972046E0,-5.841752014E0,1.496887207E0,9.120269699E0
1.657969821E1,6.779402161E0,-5.838907928E0,1.452279968E0,9.064339830E0
1.658961821E1,6.753955078E0,-5.826932831E0,1.377285919E0,9.025850205E0
1.659953921E1,6.757248230E0,-5.861211548E0,1.285826111E0,9.037010194E0
1.660946021E1,6.767576752E0,-5.885161743E0,1.254541168E0,9.055887443E0
1.661938121E1,6.859485626E0,-5.929319916E0,1.193767548E0,9.145187733E0
1.662930221E1,6.943910065E0,-6.032305756E0,1.100810852E0,9.263821255E0
1.663922321E1,7.012018433E0,-6.122717743E0,1.038540344E0,9.366677165E0
1.664914421E1,7.069349213E0,-6.201753387E0,1.009051666E0,9.458098574E0
1.665906421E1,7.139702911E0,-6.310876465E0,1.005309448E0,9.581918728E0
1.666898521E1,7.239694977E0,-6.458768921E0,1.035995636E0,9.757159745E0
1.667890621E1,7.461533661E0,-6.655010834E0,1.144370270E0,1.006346049E1
1.668882721E1,7.717950439E0,-6.835385742E0,1.306782532E0,1.039215751E1
1.669874821E1,7.877368927E0,-6.971901855E0,1.407972107E0,1.061332851E1
1.670866921E1,8.020321655E0,-7.096592560E0,1.414857788E0,1.080226865E1
1.671859021E1,8.169860687E0,-7.182962952E0,1.349294128E0,1.096185090E1
1.672851121E1,8.331973572E0,-7.218588867E0,1.216819611E0,1.109100802E1
1.673843121E1,8.518336029E0,-7.358996887E0,1.043629761E0,1.130513366E1
1.674835221E1,8.699160004E0,-7.574099579E0,8.411009216E-1,1.156502572E1
1.675827321E1,8.892857208E0,-7.924670563E0,6.192622375E-1,1.192756465E1
1.676819421E1,9.006321259E0,-8.349936218E0,4.420307922E-1,1.228945274E1
1.677811521E1,8.982820129E0,-8.533604279E0,4.516108704E-1,1.239828262E1
1.678803621E1,8.864266663E0,-8.407416687E0,6.551875305E-1,1.223475171E1
1.679795721E1,8.688831482E0,-8.004604340E0,1.041683807E0,1.185978871E1
1.680787821E1,8.518485718E0,-7.620652771E0,1.402882690E0,1.151551247E1
1.681779821E1,8.424181824E0,-7.538922729E0,1.556313629E0,1.141158654E1
1.682771921E1,8.263266449E0,-7.508984985E0,1.630559235E0,1.128384471E1
1.683764021E1,7.864196320E0,-6.996151428E0,1.776655426E0,1.067465330E1
1.684756121E1,7.406597900E0,-6.137686615E0,1.935624847E0,9.812009631E0
1.685748221E1,7.081623688E0,-5.424120483E0,2.006577301E0,9.143130183E0
1.686740321E1,6.865473175E0,-5.078040161E0,1.955234070E0,8.760374082E0
1.687732421E1,6.706952820E0,-5.014123077E0,1.873953094E0,8.581162308E0
1.688724421E1,6.634054413E0,-5.035229187E0,1.755100250E0,8.511438645E0
1.689716521E1,6.718478851E0,-5.094805298E0,1.546733551E0,8.572478275E0
1.690708621E1,6.994654541E0,-5.182373199E0,1.251248016E0,8.794760129E0
1.691700721E1,7.323520660E0,-5.228627014E0,8.238867188E-1,9.036110039E0
1.692692821E1,7.591762848E0,-5.287754059E0,2.622546387E-1,9.255483976E0
1.693684921E1,7.802374878E0,-5.403014374E0,-2.278262329E-1,9.493235637E0
1.694677021E1,7.898325348E0,-5.515280914E0,-5.629792786E-1,9.649808938E0
1.695669121E1,7.899971924E0,-5.575006714E0,-7.924520874E-1,9.701455384E0
1.696661121E1,7.923622742E0,-5.666466522E0,-8.822653198E-1,9.781157002E0
1.697653221E1,7.901917877E0,-5.794300690E0,-7.869136047E-1,9.830231922E0
1.698645321E1,7.858059082E0,-5.869893494E0,-4.716691589E-1,9.819735941E0
1.699637421E1,7.775430908E0,-5.885610809E0,-2.694396973E-2,9.751844256E0
1.700629521E1,7.620353394E0,-5.847589874E0,4.044589233E-1,9.613931568E0
1.701621621E1,7.435637512E0,-5.705684967E0,7.252418518E-1,9.400506470E0
1.702613721E1,7.304510193E0,-5.543572083E0,8.946894836E-1,9.213442889E0
1.703605721E1,7.258705444E0,-5.364694061E0,1.018032990E0,9.083233910E0
1.704597821E1,7.257657623E0,-5.189258881E0,1.147364044E0,8.995468090E0
1.705589921E1,7.271428986E0,-5.040168915E0,1.189725952E0,8.927061668E0
1.706582021E1,7.276518402E0,-4.919968872E0,1.184636536E0,8.863248698E0
1.707574121E1,7.258855133E0,-4.821174316E0,1.119821320E0,8.785709955E0
1.708566221E1,7.253316650E0,-4.737947388E0,1.003363495E0,8.721552968E0
1.709558321E1,7.196734314E0,-4.653972015E0,8.791218567E-1,8.615410353E0
1.710550421E1,7.124135284E0,-4.578678589E0,7.345225525E-1,8.500419081E0
1.711542421E1,7.129524078E0,-4.543950806E0,6.378236389E-1,8.478468111E0
1.712534521E1,7.182813263E0,-4.505780182E0,5.749543762E-1,8.498554816E0
1.713526621E1,7.275320892E0,-4.470154266E0,5.384303284E-1,8.555844813E0
1.714518721E1,7.409591675E0,-4.474944305E0,5.331912231E-1,8.672454566E0
1.715510821E1,7.554190979E0,-4.544250183E0,5.278024292E-1,8.831454381E0
1.716502921E1,7.708070984E0,-4.578828278E0,5.418731689E-1,8.981851325E0
1.717495021E1,7.859106903E0,-4.580175476E0,5.837860107E-1,9.115063072E0
1.718487121E1,7.998467102E0,-4.550387421E0,6.283932495E-1,9.223685800E0
1.719479121E1,8.155191193E0,-4.508923645E0,6.971003723E-1,9.344703567E0
1.720471221E1,8.319848785E0,-4.471501465E0,7.737409973E-1,9.476965986E0
1.721463321E1,8.438701630E0,-4.500391388E0,8.297245789E-1,9.599669302E0
1.722455421E1,8.517737274E0,-4.593198395E0,8.457412720E-1,9.714144227E0
1.723447521E1,8.587941284E0,-4.775818634E0,8.470884705E-1,9.862998429E0
1.724439621E1,8.683292999E0,-5.050198059E0,8.554710388E-1,1.008146361E1
1.725431721E1,8.837622070E0,-5.357509003E0,8.704399109E-1,1.037131295E1
1.726423721E1,9.046437836E0,-5.615422668E0,9.063652039E-1,1.068608942E1
1.727415821E1,9.308692474E0,-5.827830963E0,9.595046997E-1,1.102433756E1
1.728407921E1,9.552086334E0,-5.977519684E0,1.060245209E0,1.131800401E1
1.729400021E1,9.764644318E0,-6.068530426E0,1.185684357E0,1.155773280E1
1.730392121E1,9.919871521E0,-6.131848755E0,1.340911560E0,1.173888683E1
1.731384221E1,9.974507904E0,-6.171815643E0,1.477128296E0,1.182218357E1
1.732376321E1,9.970017242E0,-6.211782532E0,1.600022736E0,1.185527557E1
1.733368458E1,9.917925568E0,-6.350094910E0,1.739532623E0,1.190440787E1
1.734360458E1,9.829160156E0,-6.552174683E0,1.824106750E0,1.195285522E1
1.735352558E1,9.745933228E0,-6.868466949E0,1.829345856E0,1.206256851E1
1.736344658E1,9.702972565E0,-7.253466339E0,1.854343872E0,1.225557186E1
1.737336758E1,9.717192993E0,-7.526797943E0,1.913770294E0,1.243941493E1
1.738328858E1,9.765841827E0,-7.627089386E0,1.952539673E0,1.254418472E1
1.739320958E1,9.909992065E0,-7.796387329E0,1.972897339E0,1.276259856E1
1.740313058E1,1.007494904E1,-8.059689789E0,2.015858002E0,1.305859415E1
1.741305158E1,1.014515305E1,-8.055199127E0,2.176623688E0,1.313575479E1
1.742297158E1,1.017299515E1,-7.594756622E0,2.454895020E0,1.293045506E1
1.743289258E1,1.016266663E1,-6.810836792E0,2.720891876E0,1.253277876E1
1.744281358E1,1.010982651E1,-6.035000153E0,2.810106354E0,1.210481378E1
1.745273458E1,9.954000549E0,-5.562283173E0,2.796784058E0,1.174066106E1
1.746265558E1,9.670340424E0,-5.368585968E0,2.737507324E0,1.139434709E1
1.747257658E1,9.227261810E0,-5.442831573E0,2.603984985E0,1.102485890E1
1.748249758E1,8.654552765E0,-5.580994263E0,2.391277313E0,1.057199072E1
1.749241758E1,8.074958038E0,-5.524711304E0,2.152224426E0,1.001795649E1
1.750233858E1,7.639214172E0,-5.357958069E0,1.895508270E0,9.521463094E0
1.751225958E1,7.404502258E0,-5.242248688E0,1.656455383E0,9.222346200E0
1.752218058E1,7.321724396E0,-5.229375458E0,1.473535767E0,9.117309003E0
1.753210158E1,7.270381165E0,-5.251379700E0,1.303040314E0,9.062744898E0
1.754202258E1,7.247329102E0,-5.345234528E0,1.080004120E0,9.069824704E0
1.755194358E1,7.282955017E0,-5.526657257E0,8.506809998E-1,9.181995011E0
1.756186458E1,7.328161011E0,-5.741161194E0,6.556365967E-1,9.332348847E0
1.757178458E1,7.390581207E0,-5.949228516E0,5.364843750E-1,9.502727293E0
1.758170558E1,7.392078094E0,-6.071374512E0,4.875361633E-1,9.578209568E0
1.759162658E1,7.415130157E0,-6.118077393E0,5.505551147E-1,9.629025764E0
1.760154758E1,7.479346619E0,-6.157146149E0,6.072871399E-1,9.706692135E0
1.761146858E1,7.512577515E0,-6.134094086E0,7.369175720E-1,9.726714691E0
1.762138958E1,7.571704559E0,-5.987848206E0,9.493258667E-1,9.699806991E0
1.763131058E1,7.607779541E0,-5.804629211E0,1.135089569E0,9.636413138E0
1.764123158E1,7.648494873E0,-5.713019714E0,1.277742920E0,9.631754516E0
1.765115158E1,7.521109772E0,-5.608387299E0,1.400188293E0,9.485864618E0
1.766107258E1,7.257657623E0,-5.498515778E0,1.436263275E0,9.217923960E0
1.767099358E1,7.004384308E0,-5.467979279E0,1.354084167E0,8.988533855E0
1.768091458E1,6.744674377E0,-5.580545197E0,1.190175018E0,8.834570376E0
1.769083558E1,6.577472076E0,-5.469326477E0,1.183738403E0,8.635850140E0
1.770075658E1,6.501879272E0,-5.255421295E0,1.269959106E0,8.456162439E0
1.771067758E1,6.459517365E0,-5.279521179E0,1.272054749E0,8.439006562E0
1.772059758E1,6.312972107E0,-5.368286591E0,1.325194244E0,8.392154522E0
1.773051858E1,6.082750854E0,-5.386997681E0,1.350491638E0,8.236712307E0
1.774043958E1,5.967340851E0,-5.376519470E0,1.318158875E0,8.139635204E0
1.775036058E1,5.879623260E0,-5.367388458E0,1.301992493E0,8.066846534E0
1.776028158E1,5.874384155E0,-5.367987213E0,1.299298096E0,8.062992711E0
1.777020258E1,5.947881317E0,-5.291196899E0,1.334924011E0,8.071931547E0
1.778012358E1,6.026617584E0,-5.220543823E0,1.391955414E0,8.093932122E0
1.779004458E1,6.092480621E0,-5.227878571E0,1.468296661E0,8.161184323E0
1.779996458E1,6.097869415E0,-5.279970245E0,1.542093201E0,8.212195117E0
1.780988558E1,6.079607391E0,-5.341791687E0,1.601220245E0,8.249864892E0
1.781980658E1,6.079008636E0,-5.381758575E0,1.606159973E0,8.276316888E0
1.782972758E1,6.136938171E0,-5.410648499E0,1.585353241E0,8.333694990E0
1.783964858E1,6.269263000E0,-5.481451263E0,1.546883240E0,8.470113003E0
1.784956958E1,6.415658569E0,-5.528902588E0,1.480122070E0,8.597685738E0
1.785949058E1,6.578070831E0,-5.535937958E0,1.351838837E0,8.703165698E0
1.786941158E1,6.736890564E0,-5.639223175E0,1.228645020E0,8.871082294E0
1.787933158E1,6.848558350E0,-5.837411041E0,1.109642487E0,9.066941358E0
1.788925258E1,6.976542206E0,-6.072272644E0,1.027463379E0,9.305929143E0
1.789917358E1,7.156318359E0,-6.350244598E0,1.048419800E0,9.624847167E0
1.790909458E1,7.339537354E0,-6.598578186E0,1.149609375E0,9.936379842E0
1.791901558E1,7.546706543E0,-6.766379242E0,1.274000702E0,1.021566177E1
1.792893658E1,7.775730286E0,-6.876699829E0,1.399439850E0,1.047422617E1
1.793885758E1,7.972870331E0,-6.985673218E0,1.470242615E0,1.070177111E1
1.794877858E1,8.083041229E0,-7.050189056E0,1.477876740E0,1.082704211E1
1.795869858E1,8.148305511E0,-7.085964661E0,1.494941254E0,1.090140483E1
1.796861958E1,8.258476410E0,-7.199279022E0,1.491648102E0,1.105699168E1
1.797854058E1,8.465944977E0,-7.501949615E0,1.388362885E0,1.139644786E1
1.798846158E1,8.604556732E0,-7.909402313E0,1.217268677E0,1.175069294E1
1.799838258E1,8.645122375E0,-8.189469910E0,1.097966766E0,1.195872440E1
1.800830358E1,8.584049377E0,-8.227341156E0,1.065783691E0,1.193779465E1
1.801822458E1,8.530909882E0,-8.029752045E0,1.140777740E0,1.177092669E1
1.802814558E1,8.552614746E0,-7.850275269E0,1.259780273E0,1.167737501E1
1.803806558E1,8.640482025E0,-7.947722626E0,1.398392029E0,1.182284758E1
1.804798658E1,8.507857819E0,-7.970924377E0,1.593137054E0,1.176679080E1
1.805790758E1,8.184081116E0,-7.508835297E0,1.823507996E0,1.125553076E1
1.806782858E1,7.839797058E0,-6.797215118E0,2.017354889E0,1.057044332E1
1.807774958E1,7.592211914E0,-6.235283661E0,2.148482208E0,1.005666047E1
1.808767058E1,7.411088562E0,-5.911806335E0,2.190395050E0,9.729928998E0
1.809759158E1,7.169490967E0,-5.765111389E0,2.135159912E0,9.444417288E0
1.810751258E1,6.983278198E0,-5.666765900E0,2.002086639E0,9.213401167E0
1.811743258E1,6.934779053E0,-5.539380798E0,1.847907257E0,9.065906539E0
1.812735358E1,7.071744232E0,-5.471721497E0,1.639839935E0,9.090565309E0
1.813727458E1,7.290738831E0,-5.507347412E0,1.439556427E0,9.249760587E0
1.814719558E1,7.582631836E0,-5.571114807E0,1.184037781E0,9.483436678E0
1.815711658E1,7.915988617E0,-5.644911346E0,9.174421692E-1,9.765736021E0
1.816703758E1,8.183033295E0,-5.672454071E0,6.123765564E-1,9.975659083E0
1.817695858E1,8.401429138E0,-5.763464813E0,2.986289978E-1,1.019267960E1
1.818687858E1,8.608897705E0,-5.874384155E0,9.131011963E-2,1.042256429E1
1.819679958E1,8.685388641E0,-5.880671082E0,3.742218018E-3,1.048896002E1
1.820672058E1,8.673862610E0,-5.834267578E0,-6.017486572E-2,1.045362099E1
1.821664158E1,8.660989380E0,-5.779930573E0,-9.879455566E-2,1.041297723E1
1.822656258E1,8.585246887E0,-5.669310608E0,-1.002914429E-2,1.028822859E1
1.823648358E1,8.388705597E0,-5.474864960E0,1.927990723E-1,1.001906679E1
1.824640458E1,8.172255707E0,-5.250481567E0,4.493655396E-1,9.723952356E0
1.825632558E1,7.968080292E0,-5.077740784E0,6.436614990E-1,9.470377771E0
1.826624558E1,7.809559937E0,-4.992418213E0,7.286846924E-1,9.297550613E0
1.827616658E1,7.586374054E0,-4.958438873E0,7.382647705E-1,9.093086507E0
1.828608758E1,7.385940857E0,-4.937183075E0,6.333329773E-1,8.906683430E0
1.829600858E1,7.241042175E0,-4.944817200E0,4.784051514E-1,8.781388296E0
1.830592958E1,7.086862793E0,-4.948858795E0,4.093986511E-1,8.653463750E0
1.831585058E1,6.990612946E0,-4.903952179E0,4.137396240E-1,8.549186909E0
1.832577158E1,6.930438080E0,-4.841232605E0,4.652325439E-1,8.466696312E0
1.833569263E1,6.887028351E0,-4.789140930E0,5.146298218E-1,8.404277138E0
1.834561263E1,6.983427887E0,-4.782105560E0,5.721102905E-1,8.483166203E0
1.835553362E1,7.155270538E0,-4.778812408E0,7.111711121E-1,8.633696130E0
1.836545462E1,7.307503967E0,-4.738246765E0,8.279283142E-1,8.748489123E0
1.837537562E1,7.473059692E0,-4.716691589E0,8.732839966E-1,8.880114056E0
1.838529663E1,7.675887909E0,-4.682861938E0,8.333171082E-1,9.030108999E0
1.839521763E1,7.804171143E0,-4.648283844E0,7.661068726E-1,9.115840590E0
1.840513863E1,7.911048889E0,-4.597389679E0,7.012916565E-1,9.176736695E0
1.841505963E1,7.974217529E0,-4.562961273E0,6.656657410E-1,9.211507567E0
1.842497963E1,8.111631775E0,-4.567302246E0,6.665638733E-1,9.332905617E0
1.843490063E1,8.271050262E0,-4.577780457E0,7.460485840E-1,9.482770420E0
1.844482163E1,8.393345947E0,-4.624483337E0,8.652008057E-1,9.621989127E0
1.845474263E1,8.522227936E0,-4.741390228E0,1.010997620E0,9.804655347E0
1.846466362E1,8.686137085E0,-4.903802490E0,1.157393188E0,1.004170381E1
1.847458462E1,8.867410126E0,-5.070555725E0,1.301393738E0,1.029733574E1
1.848450562E1,9.013206940E0,-5.191504211E0,1.363215179E0,1.049037516E1
1.849442663E1,9.182953949E0,-5.317242737E0,1.313219147E0,1.069225225E1
1.850434663E1,9.323212280E0,-5.462141418E0,1.211281128E0,1.087310802E1
1.851426763E1,9.381890259E0,-5.674100647E0,1.095721436E0,1.101888780E1
1.852418863E1,9.398655396E0,-5.907465363E0,1.015338593E0,1.114736663E1
1.853410963E1,9.399254150E0,-6.113137665E0,9.859996033E-1,1.125560420E1
1.854403063E1,9.385033722E0,-6.260581055E0,1.006506958E0,1.132637583E1
1.855395163E1,9.375603333E0,-6.373596039E0,1.095272369E0,1.138965697E1
1.856387263E1,9.315578156E0,-6.395600281E0,1.260379028E0,1.136979572E1
1.857379362E1,9.199270020E0,-6.340514832E0,1.454674988E0,1.126697726E1
1.858371362E1,9.021439819E0,-6.259084167E0,1.637145538E0,1.110147542E1
1.859363463E1,8.784332886E0,-6.254443817E0,1.750160522E0,1.092454272E1
1.860355563E1,8.560398560E0,-6.467600555E0,1.752705231E0,1.087116627E1
1.861347663E1,8.372239838E0,-6.851552124E0,1.760938110E0,1.096079693E1
1.862339763E1,8.316405945E0,-7.251071320E0,1.749412079E0,1.117144063E1
1.863331863E1,8.588839417E0,-7.620652771E0,1.755249939E0,1.161565381E1
1.864323963E1,9.047785034E0,-7.923473053E0,1.778900757E0,1.215764480E1
1.865316063E1,9.437574463E0,-8.132887573E0,1.942809906E0,1.260897230E1
1.866308063E1,9.703421631E0,-8.026907959E0,2.260748749E0,1.279447645E1
1.867300162E1,9.995314636E0,-7.497159576E0,2.546354828E0,1.275137794E1
1.868292262E1,1.027433441E1,-6.726412354E0,2.745889893E0,1.258357986E1
1.869284363E1,1.033735336E1,-5.983806610E0,2.894231415E0,1.228997118E1
1.870276463E1,1.029020142E1,-5.507347412E0,2.988984375E0,1.204795204E1
1.871268563E1,1.006102798E1,-5.345384216E0,3.079695740E0,1.180177709E1
1.872260663E1,9.508676605E0,-5.394182739E0,3.051853638E0,1.135015193E1
1.873252763E1,8.768465881E0,-5.517825623E0,2.878065033E0,1.075247189E1
1.874244763E1,8.087382202E0,-5.630092163E0,2.577490082E0,1.018563419E1
1.875236863E1,7.609725494E0,-5.712271271E0,2.248324585E0,9.777163628E0
1.876228963E1,7.214397583E0,-5.776637421E0,1.885928192E0,9.432592301E0
1.877221063E1,6.901398468E0,-5.849835205E0,1.556014252E0,9.179926639E0
1.878213162E1,6.730154572E0,-5.905220032E0,1.275347900E0,9.043954691E0
1.879205262E1,6.744524689E0,-5.972729645E0,1.027762756E0,9.067436736E0
1.880197363E1,6.841223602E0,-6.044729919E0,9.089099121E-1,9.174269312E0
1.881189463E1,6.899153137E0,-6.083948364E0,8.982820129E-1,9.242275276E0
1.882181463E1,7.006779327E0,-6.174959106E0,9.749226379E-1,9.390183739E0
1.883173563E1,7.141199799E0,-6.297105103E0,1.108894043E0,9.585401047E0
1.884165663E1,7.244784393E0,-6.366560669E0,1.238075409E0,9.723827764E0
1.885157763E1,7.311246185E0,-6.342460785E0,1.299747162E0,9.765780679E0
1.886149863E1,7.375312958E0,-6.280489655E0,1.312171326E0,9.775560604E0
1.887141963E1,7.438481598E0,-6.190676422E0,1.253343658E0,9.758399119E0
1.888134062E1,7.468718719E0,-6.070626068E0,1.159039764E0,9.694206174E0
1.889126162E1,7.450756073E0,-5.925727386E0,1.135388947E0,9.587341612E0
1.890118163E1,7.375163269E0,-5.807024231E0,1.232985992E0,9.467566642E0
1.891110263E1,7.253166962E0,-5.737868042E0,1.310075684E0,9.340656237E0
1.892102363E1,7.134164429E0,-5.689668274E0,1.388811951E0,9.230245165E0
1.893094463E1,7.001390533E0,-5.629942474E0,1.431323547E0,9.097494642E0
1.894086563E1,6.877448273E0,-5.557343445E0,1.432521057E0,8.957425829E0
1.895078663E1,6.811435547E0,-5.510790253E0,1.384321289E0,8.870220338E0
1.896070763E1,6.742279358E0,-5.498366089E0,1.344504089E0,8.803297782E0
1.897062763E1,6.644981689E0,-5.488336945E0,1.304237823E0,8.716573889E0
1.898054862E1,6.585854645E0,-5.446873169E0,1.282383270E0,8.642130268E0
1.899046962E1,6.555617523E0,-5.405259705E0,1.257534943E0,8.589199481E0
1.900039062E1,6.529571686E0,-5.366340637E0,1.284029846E0,8.548780666E0
1.901031163E1,6.508764954E0,-5.319787445E0,1.347497864E0,8.513513386E0
1.902023263E1,6.487658844E0,-5.283562775E0,1.402283936E0,8.483640322E0
1.903015363E1,6.465055847E0,-5.299429779E0,1.441053314E0,8.482778893E0
1.904007463E1,6.492897949E0,-5.335804138E0,1.454525299E0,8.529019488E0
1.904999563E1,6.529571686E0,-5.396727448E0,1.474583588E0,8.598509772E0
1.905991563E1,6.503376160E0,-5.484744415E0,1.519041138E0,8.641979446E0
1.906983663E1,6.480773163E0,-5.539530487E0,1.523681488E0,8.660740389E0
1.907975763E1,6.512956238E0,-5.563181305E0,1.493144989E0,8.694657391E0
1.908967862E1,6.541546783E0,-5.535339203E0,1.448986816E0,8.690878966E0
1.909959962E1,6.565646667E0,-5.507497101E0,1.422491913E0,8.686985882E0
1.910952062E1,6.622079315E0,-5.541476440E0,1.448537750E0,8.755464420E0
1.911944163E1,6.710545349E0,-5.627248077E0,1.475930786E0,8.881199890E0
1.912936263E1,6.812333679E0,-5.765410767E0,1.452878723E0,9.042052203E0
1.913928263E1,6.958130493E0,-5.980214081E0,1.419797516E0,9.284092061E0
1.914920363E1,7.110513611E0,-6.255791016E0,1.363664246E0,9.568380491E0
1.915912463E1,7.298073578E0,-6.464457092E0,1.300345917E0,9.835750248E0
1.916904563E1,7.571105804E0,-6.651418304E0,1.273551636E0,1.015799893E1
1.917896663E1,7.856562195E0,-6.735094299E0,1.305135956E0,1.043026580E1
1.918888763E1,8.096812592E0,-6.649472351E0,1.357676697E0,1.056490145E1
1.919880862E1,8.309071198E0,-6.580914917E0,1.391955414E0,1.069049322E1
1.920872962E1,8.471333771E0,-6.503525848E0,1.448238373E0,1.077760357E1
1.921864963E1,8.582702179E0,-6.416556702E0,1.446292419E0,1.081326678E1
1.922857063E1,8.819210358E0,-6.571334839E0,1.304836578E0,1.107535604E1
1.923849163E1,9.064250793E0,-7.001540222E0,1.081051941E0,1.150438530E1
1.924841263E1,9.084608459E0,-7.348818054E0,8.505313110E-1,1.171574330E1
1.925833363E1,8.957971802E0,-7.456144867E0,7.173083496E-1,1.167706668E1
1.926825463E1,8.763077087E0,-7.338339844E0,7.685018921E-1,1.145571241E1
1.927817563E1,8.615633698E0,-7.069498901E0,8.866062927E-1,1.118002815E1
1.928809663E1,8.660091248E0,-6.989265747E0,1.015937347E0,1.117493377E1
1.929801662E1,8.794960785E0,-7.216792603E0,1.175655212E0,1.143746457E1
1.930793762E1,8.731193390E0,-7.306007080E0,1.463656311E0,1.147840439E1
1.931785863E1,8.395291901E0,-6.841223602E0,1.820214844E0,1.098164143E1
1.932777963E1,8.056845703E0,-6.098617859E0,2.098635864E0,1.032037669E1
1.933770050E1,7.824528809E0,-5.572012939E0,2.311642914E0,9.879993534E0
1.934762150E1,7.514523468E0,-5.346881104E0,2.498903503E0,9.555193311E0
1.935754250E1,7.163353729E0,-5.283113708E0,2.606080627E0,9.274512566E0
1.936746350E1,6.922953644E0,-5.379812622E0,2.534080353E0,9.126403138E0
1.937738350E1,6.937024384E0,-5.558091888E0,2.380799103E0,9.202331069E0
1.938730450E1,7.073839874E0,-5.683980103E0,2.086211700E0,9.311236203E0
1.939722550E1,7.201075287E0,-5.743705902E0,1.682650909E0,9.363597432E0
1.940714650E1,7.375163269E0,-5.827980652E0,1.252595215E0,9.483005141E0
1.941706750E1,7.630382538E0,-5.913602600E0,8.514294434E-1,9.691148822E0
1.942698850E1,7.845335541E0,-5.913602600E0,5.095404053E-1,9.837663182E0
1.943690950E1,7.994275818E0,-5.919141083E0,2.630030823E-1,9.950570216E0
1.944683050E1,8.204738159E0,-5.898484039E0,1.402583313E-1,1.010591483E1
1.945675050E1,8.281977539E0,-5.833219757E0,1.275347900E-1,1.013083757E1
1.946667150E1,8.245453491E0,-5.703888702E0,1.492396545E-1,1.002716920E1
1.947659250E1,8.120014343E0,-5.596412201E0,2.073188782E-1,9.863946653E0
1.948651350E1,7.882009277E0,-5.483846283E0,3.284170532E-1,9.607627078E0
1.949643450E1,7.575446777E0,-5.329816589E0,4.698728943E-1,9.274433637E0
1.950635550E1,7.359895020E0,-5.202431488E0,6.050418091E-1,9.033239932E0
1.951627650E1,7.210805054E0,-5.096152496E0,7.179071045E-1,8.858999402E0
1.952619750E1,7.120093689E0,-4.969815216E0,7.867639160E-1,8.718589042E0
1.953611750E1,7.068301392E0,-4.877307587E0,7.637118530E-1,8.621616418E0
1.954603850E1,6.939269714E0,-4.795427856E0,6.337820435E-1,8.458798506E0
1.955595950E1,6.790329437E0,-4.744683380E0,4.845423889E-1,8.297913929E0
1.956588050E1,6.731352081E0,-4.723726959E0,4.358935547E-1,8.234968149E0
1.957580150E1,6.725963287E0,-4.722379761E0,4.552033997E-1,8.230836099E0
1.958572250E1,6.778354340E0,-4.741240540E0,5.587879944E-1,8.290819829E0
1.959564350E1,6.831194458E0,-4.767885132E0,6.833290100E-1,8.358521693E0
1.960556450E1,6.889423370E0,-4.828059998E0,7.699987793E-1,8.447911922E0
1.961548450E1,6.927893372E0,-4.926854553E0,7.973918152E-1,8.538468016E0
1.962540550E1,6.954537964E0,-4.993615723E0,8.039781189E-1,8.599312594E0
1.963532650E1,7.057972870E0,-5.050647125E0,8.517288208E-1,8.720634117E0
1.964524750E1,7.184609528E0,-5.084925842E0,8.424481201E-1,8.842217127E0
1.965516850E1,7.305707703E0,-5.103187866E0,7.848179626E-1,8.946051122E0
1.966508950E1,7.432494049E0,-5.096002808E0,7.589218140E-1,9.043626193E0
1.967501050E1,7.536078644E0,-5.041965179E0,7.562274170E-1,9.098668809E0
1.968493150E1,7.663463745E0,-5.023703156E0,7.343728638E-1,9.192691307E0
1.969485150E1,7.874674530E0,-5.077740784E0,7.481442261E-1,9.399663303E0
1.970477250E1,8.079897766E0,-5.141208801E0,8.190966797E-1,9.611851810E0
1.971469350E1,8.293204193E0,-5.211562500E0,9.419911194E-1,9.839967823E0
1.972461450E1,8.465196533E0,-5.325625305E0,1.078806610E0,1.005910836E1
1.973453550E1,8.596772919E0,-5.457650757E0,1.171613617E0,1.025003097E1
1.974445650E1,8.735085297E0,-5.542374573E0,1.232686615E0,1.041821229E1
1.975437750E1,8.870403900E0,-5.636678467E0,1.291514282E0,1.058887240E1
1.976429850E1,9.044042816E0,-5.776637421E0,1.339264984E0,1.081470670E1
1.977421850E1,9.239536285E0,-5.899980927E0,1.328487396E0,1.104281144E1
1.978413950E1,9.442963257E0,-6.014941864E0,1.207987976E0,1.126091984E1
1.979406050E1,9.643845520E0,-6.111940155E0,1.140029297E0,1.147428585E1
1.980398150E1,9.751621399E0,-6.177653503E0,1.123264160E0,1.159824319E1
1.981390250E1,9.823471985E0,-6.237828369E0,1.168769531E0,1.169517536E1
1.982382350E1,9.867779846E0,-6.290967865E0,1.270258484E0,1.177127488E1
1.983374450E1,9.881401520E0,-6.381828918E0,1.393152924E0,1.184528224E1
1.984366550E1,9.909093933E0,-6.525979156E0,1.528920593E0,1.196311601E1
1.985358650E1,9.948312378E0,-6.778354340E0,1.641636200E0,1.214948460E1
1.986350650E1,9.946815491E0,-7.089257813E0,1.750010834E0,1.233933761E1
1.987342750E1,9.905950470E0,-7.306156769E0,1.859133911E0,1.244846016E1
1.988334850E1,9.827214203E0,-7.374414825E0,2.003433838E0,1.244868990E1
1.989326950E1,9.717791748E0,-7.349716187E0,2.156715088E0,1.237356959E1
1.990319050E1,9.640552368E0,-7.382797394E0,2.299069061E0,1.235846535E1
1.991311150E1,9.589059448E0,-7.543712769E0,2.445913696E0,1.244347850E1
1.992303250E1,9.517059174E0,-7.630831604E0,2.620750122E0,1.247687210E1
1.993295350E1,9.434880066E0,-7.440876617E0,2.796484680E0,1.233709582E1
1.994287350E1,9.357341309E0,-6.968459015E0,2.993325348E0,1.204488497E1
1.995279450E1,9.254954224E0,-6.296656036E0,3.140319672E0,1.162599082E1
1.996271550E1,9.064699860E0,-5.573210449E0,3.184178467E0,1.110713513E1
1.997263650E1,8.824599152E0,-4.987029419E0,3.078647919E0,1.059349261E1
1.998255750E1,8.557853851E0,-4.723577271E0,2.866539001E0,1.018656422E1
1.999247850E1,8.252488861E0,-4.732109528E0,2.580483856E0,9.856740329E0
2.000239950E1,7.882308655E0,-4.878654785E0,2.233655090E0,9.535264931E0
2.001232050E1,7.494165802E0,-5.057233429E0,1.905537415E0,9.239545652E0
2.002224050E1,7.159611511E0,-5.143304443E0,1.655557251E0,8.969642546E0
2.003216150E1,6.957681427E0,-5.157973938E0,1.492995300E0,8.788803158E0
2.004208250E1,6.849157104E0,-5.224286041E0,1.336121521E0,8.717186381E0
2.005200350E1,6.851851501E0,-5.333858185E0,1.192719727E0,8.764730029E0
2.006192450E1,6.912475433E0,-5.421276398E0,1.090482330E0,8.852214757E0
2.007184550E1,7.055128784E0,-5.537135468E0,1.050814819E0,9.029890538E0
2.008176650E1,7.261399841E0,-5.698350220E0,1.006806335E0,9.285083838E0
2.009168750E1,7.463329926E0,-5.870492249E0,1.016386414E0,9.549712779E0
2.010160750E1,7.621550903E0,-6.044729919E0,1.105301514E0,9.790224176E0
2.011152850E1,7.755073242E0,-6.151457977E0,1.206341400E0,9.971803037E0
2.012144950E1,7.841144257E0,-6.226302338E0,1.325942688E0,1.009992614E1
2.013137050E1,7.911048889E0,-6.258485413E0,1.454674988E0,1.019163449E1
2.014129150E1,7.983947296E0,-6.198460236E0,1.594184875E0,1.023258272E1
2.015121250E1,8.029003601E0,-6.131998444E0,1.790127411E0,1.026015886E1
2.016113350E1,7.979905701E0,-6.117179260E0,1.938019867E0,1.023985830E1
2.017105450E1,7.858657837E0,-6.045628052E0,2.087558899E0,1.013242437E1
2.018097450E1,7.755372620E0,-5.958658905E0,2.073787537E0,9.997600470E0
2.019089550E1,7.651338959E0,-5.995781708E0,1.895807648E0,9.903861509E0
2.020081650E1,7.563172302E0,-5.868845673E0,1.760189667E0,9.733611481E0
2.021073750E1,7.470514984E0,-5.722599792E0,1.604812775E0,9.546316910E0
2.022065850E1,7.460336151E0,-5.687572632E0,1.434317322E0,9.490119288E0
2.023057950E1,7.336543579E0,-5.656886444E0,1.302890625E0,9.355359956E0
2.024050050E1,7.098239136E0,-5.638325043E0,1.231489105E0,9.148348131E0
2.025042150E1,6.926995239E0,-5.635331268E0,1.197060699E0,9.009615745E0
2.026034250E1,6.791826324E0,-5.618416443E0,1.203048248E0,8.896225786E0
2.027026250E1,6.649771729E0,-5.601052551E0,1.281485138E0,8.788256817E0
2.028018350E1,6.516997833E0,-5.548362122E0,1.351689148E0,8.665024324E0
2.029010450E1,6.444548492E0,-5.528902588E0,1.397344208E0,8.605436650E0
2.030002550E1,6.397995300E0,-5.500611420E0,1.450783081E0,8.561299049E0
2.030994650E1,6.349346466E0,-5.437592468E0,1.478026428E0,8.489179850E0
2.031986750E1,6.316414948E0,-5.425916748E0,1.475781097E0,8.456689671E0
2.032978871E1,6.267616425E0,-5.445525970E0,1.407972107E0,8.421351091E0
2.033970971E1,6.226002960E0,-5.471721497E0,1.265917511E0,8.384831313E0
2.034962971E1,6.139632568E0,-5.489833832E0,1.063987427E0,8.304542902E0
2.035955071E1,6.070027313E0,-5.505700836E0,8.957373047E-1,8.243804862E0
2.036947171E1,6.059848480E0,-5.535189514E0,7.912545776E-1,8.245372664E0
2.037939271E1,6.086193695E0,-5.582491150E0,7.846682739E-1,8.295882438E0
2.038931371E1,6.162385254E0,-5.667963409E0,9.042695618E-1,8.421312526E0
2.039923471E1,6.372099152E0,-5.730533295E0,1.136287079E0,8.644871761E0
2.040915571E1,6.658154297E0,-5.728886719E0,1.434317322E0,8.899911677E0
2.041907671E1,6.894662476E0,-5.684728546E0,1.701062622E0,9.096489616E0
2.042899671E1,7.112609253E0,-5.719456329E0,1.810185699E0,9.304738758E0
2.043891771E1,7.231611786E0,-5.816903687E0,1.779649200E0,9.449853374E0
2.044883871E1,7.298522644E0,-5.942043457E0,1.640438690E0,9.553394806E0
2.045875971E1,7.444469147E0,-6.011049957E0,1.467847595E0,9.680259244E0
2.046868071E1,7.653733978E0,-6.042634277E0,1.404828644E0,9.852239154E0
2.047860171E1,7.883805542E0,-6.019582214E0,1.466201019E0,1.002693898E1
2.048852271E1,8.162376251E0,-5.992787933E0,1.569785614E0,1.024705422E1
2.049844371E1,8.548573151E0,-6.066883850E0,1.686243439E0,1.061737253E1
2.050836371E1,8.923992462E0,-6.037395172E0,1.795965271E0,1.092306153E1
